Class,Dataset Name,Order,Variable Name,Label,Type,Codelist,Value list,Format,Role,Notes,Core
Interventions,AG,1,STUDYID,Study Identifier,Char,,,,Identifier,Unique identifier for a study.,Req
Interventions,AG,2,DOMAIN,Domain Abbreviation,Char,,AG,,Identifier,Two-character abbreviation for the domain.,Req
Interventions,AG,3,USUBJID,Unique Subject Identifier,Char,,,,Identifier,Identifier used to uniquely identify a subject across all studies for all applications or submissions involving the product.,Req
Interventions,AG,4,AGSEQ,Sequence Number,Num,,,,Identifier,Sequence number given to ensure uniqueness of subject records within a domain. May be any valid number.,Req
Interventions,AG,5,AGGRPID,Group ID,Char,,,,Identifier,Used to tie together a block of related records in a single domain for a subject.,Perm
Interventions,AG,6,AGSPID,Sponsor-Defined Identifier,Char,,,,Identifier,Sponsor-defined reference number. May be preprinted on the CRF as an explicit line identifier or defined in the sponsor's operational database. Example: Line number from the procedure or test page.,Perm
Interventions,AG,7,AGLNKID,Link ID,Char,,,,Identifier,Identifier used to link related records across domains.This may be a one-to-one or a one-to-many relationship.,Perm
Interventions,AG,8,AGLNKGRP,Link Group ID,Char,,,,Identifier,Identifier used to link related records across domains.This will usually be a many-to-one relationship.,Perm
Interventions,AG,9,AGTRT,Reported Agent Name,Char,,,,Topic,Verbatim medication name that is either preprinted or collected on a CRF.,Req
Interventions,AG,10,AGMODIFY,Modified Reported Name,Char,,,,Synonym Qualifier,"If AGTRT is modified to facilitate coding, then AGMODIFY will contain the modified text.",Perm
Interventions,AG,11,AGDECOD,Standardized Agent Name,Char,,,,Synonym Qualifier,"Standardized or dictionary-derived text description of AGTRT or AGMODIFY. Equivalent to the generic medication name in WHO Drug. The sponsor is expected to provide the dictionary name and version used to map the terms utilizing the external codelist element in the Define-XML document. If an intervention term does not have a decode value in the dictionary, then AGDECOD will be left blank.",Perm
Interventions,AG,12,AGCAT,Category for Agent,Char,,,,Grouping Qualifier,"Used to define a category of agent. Examples: ""CHALLENGE AGENT"", ""PET TRACER"".",Perm
Interventions,AG,13,AGSCAT,Subcategory for Agent,Char,,,,Grouping Qualifier,Further categorization of agent.,Perm
Interventions,AG,14,AGPRESP,AG Pre-Specified,Char,NY,,,Variable Qualifier,"Used to indicate whether (""Y""/null) information about the use of a specific agent was solicited on the CRF.",Perm
Interventions,AG,15,AGOCCUR,AG Occurrence,Char,NY,,,Record Qualifier,"When the use of specific agent is solicited, AGOCCUR is used to indicate whether (""Y""/""N"") use of the agent occurred. Values are null for agents not specifically solicited.",Perm
Interventions,AG,16,AGSTAT,Completion Status,Char,ND,,,Record Qualifier,"Used to indicate that a question about a prespecified agent was not answered. Should be null or have a value of ""NOT DONE"".",Perm
Interventions,AG,17,AGREASND,Reason Procedure Agent Not Collected,Char,,,,Record Qualifier,"Describes the reason a response to a question about the occurrence of a procedure agent was not collected. Used in conjunction with AGSTAT when value is ""NOT DONE"".",Perm
Interventions,AG,18,AGCLAS,Agent Class,Char,,,,Variable Qualifier,"Drug class. May be obtained from coding. When coding to a single class, populate with class value. If using a dictionary and coding to multiple classes, follow guidance in Section 4.2.8.3, Multiple Values for a Non-result Qualifier Variable, or omit AGCLAS.",Perm
Interventions,AG,19,AGCLASCD,Agent Class Code,Char,,,,Variable Qualifier,"Class code corresponding to AGCLAS. Drug class. May be obtained from coding. When coding to a single class, populate with class code. If using a dictionary and coding to multiple classes, follow guidance in Section 4.2.8.3, Multiple Values for a Non-result Qualifier Variable, or omit AGCLASCD.",Perm
Interventions,AG,20,AGDOSE,Dose per Administration,Num,,,,Record Qualifier,Amount of AGTRT taken.,Perm
Interventions,AG,21,AGDOSTXT,Dose Description,Char,,,,Record Qualifier,"Dosing amounts or a range of dosing information collected in text form. Units may be stored in AGDOSU. Examples: ""200-400"", ""15-20"".",Perm
Interventions,AG,22,AGDOSU,Dose Units,Char,UNIT,,,Variable Qualifier,"Units for AGDOSE and AGDOSTXT. Examples: ""ng"", ""mg"", ""mg/kg"".",Perm
Interventions,AG,23,AGDOSFRM,Dose Form,Char,FRM,,,Variable Qualifier,"Dose form for AGTRT. Examples: ""TABLET"", ""AEROSOL"".",Perm
Interventions,AG,24,AGDOSFRQ,Dosing Frequency per Interval,Char,FREQ,,,Record Qualifier,"Usually expressed as the number of repeated administrations of AGDOSE within a specific time period. Example: ""ONCE"".",Perm
Interventions,AG,25,AGROUTE,Route of Administration,Char,ROUTE,,,Variable Qualifier,"Route of administration for AGTRT. Example: ""ORAL"".",Perm
Interventions,AG,26,VISITNUM,Visit Number,Num,,,,Timing,"1. Clinical encounter number. \n 2. Numeric version of VISIT, used for sorting.",Exp
Interventions,AG,27,VISIT,Visit Name,Char,,,,Timing,1. Protocol-defined description of clinical encounter. \n 2. May be used in addition to VISITNUM and/or VISITDY.,Perm
Interventions,AG,28,VISITDY,Planned Study Day of Visit,Num,,,,Timing,Planned study day of the visit based upon RFSTDTC in Demographics.,Perm
Interventions,AG,29,TAETORD,Planned Order of Element within Arm,Num,,,,Timing,Number that gives the planned order of the element within the arm for the element in which the agent administration started.,Perm
Interventions,AG,30,EPOCH,Epoch,Char,EPOCH,,,Timing,Epoch associated with the start date/time of the agent administration started.,Perm
Interventions,AG,31,AGSTDTC,Start Date/Time of Agent,Char,,,ISO 8601 datetime or interval,Timing,The date/time when administration of the treatment indicated by AGTRT and the dosing variables began.,Perm
Interventions,AG,32,AGENDTC,End Date/Time of Agent,Char,,,ISO 8601 datetime or interval,Timing,The date/time when administration of the treatment indicated by AGTRT and the dosing variables ended.,Perm
Interventions,AG,33,AGSTDY,Study Day of Start of Agent,Num,,,,Timing,Study day of start of agent relative to the sponsor-defined RFSTDTC.,Perm
Interventions,AG,34,AGENDY,Study Day of End of Agent,Num,,,,Timing,Study day of end of agent relative to the sponsor-defined RFSTDTC.,Perm
Interventions,AG,35,AGDUR,Duration of Agent,Char,,,ISO 8601 duration,Timing,Collected duration for an agent episode. Used only if collected on the CRF and not derived from start and end date/times.,Perm
Interventions,AG,36,AGSTRF,Start Relative to Reference Period,Char,STENRF,,,Timing,"Describes the start of the agent relative to sponsor-defined reference period. The sponsor-defined reference period is a continuous period of time defined by a discrete starting point and a discrete ending point (represented by RFSTDTC and RFENDTC in Demographics). If information such as ""PRIOR"", ""ONGOING"", or ""CONTINUING"" was collected, this information may be translated into AGSTRF. \n Not all values of the codelist are allowable for this variable. See Section 4.4.7, Use of Relative Timing Variables.",Perm
Interventions,AG,37,AGENRF,End Relative to Reference Period,Char,STENRF,,,Timing,"Describes the end of the agent relative to the sponsor-defined reference period. The sponsor-defined reference period is a continuous period of time defined by a discrete starting point and a discrete ending point (represented by RFSTDTC and RFENDTC in Demographics). If information such as ""PRIOR"", ""ONGOING"", or ""CONTINUING"" was collected, this information may be translated into AGENRF. \n Not all values of the codelist are allowable for this variable. See Section 4.4.7, Use of Relative Timing Variables.",Perm
Interventions,AG,38,AGSTRTPT,Start Relative to Reference Time Point,Char,STENRF,,,Timing,"Identifies the start of the agent as being before or after the sponsor-defined reference time point defined by variable AGSTTPT. \n Not all values of the codelist are allowable for this variable. See Section 4.4.7, Use of Relative Timing Variables.",Perm
Interventions,AG,39,AGSTTPT,Start Reference Time Point,Char,,,,Timing,"Description or date/time in ISO 8601 character format of the reference point referred to by AGSTRTPT. Examples: ""2003-12-15"", ""VISIT 1"".",Perm
Interventions,AG,40,AGENRTPT,End Relative to Reference Time Point,Char,STENRF,,,Timing,"Identifies the end of the agent as being before or after the reference time point defined by variable AGENTPT. Identifies the end of the agent as being before or after the sponsor-defined reference time point defined by variable AGENTPT. \n Not all values of the codelist are allowable for this variable. See Section 4.4.7, Use of Relative Timing Variables.",Perm
Interventions,AG,41,AGENTPT,End Reference Time Point,Char,,,,Timing,"Description or date/time in ISO 8601 character format of the reference point referred to by AGENRTPT. Examples: ""2003-12-25"", ""VISIT 2"".",Perm
Interventions,CM,1,STUDYID,Study Identifier,Char,,,,Identifier,Unique identifier for a study.,Req
Interventions,CM,2,DOMAIN,Domain Abbreviation,Char,,CM,,Identifier,Two-character abbreviation for the domain.,Req
Interventions,CM,3,USUBJID,Unique Subject Identifier,Char,,,,Identifier,Identifier used to uniquely identify a subject across all studies for all applications or submissions involving the product.,Req
Interventions,CM,4,CMSEQ,Sequence Number,Num,,,,Identifier,Sequence number to ensure uniqueness of subject records within a domain. May be any valid number.,Req
Interventions,CM,5,CMGRPID,Group ID,Char,,,,Identifier,Used to tie together a block of related records in a single domain for a subject.,Perm
Interventions,CM,6,CMSPID,Sponsor-Defined Identifier,Char,,,,Identifier,Sponsor-defined reference number. Example: a number preprinted on the CRF as an explicit line identifier or record identifier defined in the sponsor's operational database. Example: line number on a concomitant medication page.,Perm
Interventions,CM,7,CMTRT,"Reported Name of Drug, Med, or Therapy",Char,,,,Topic,Verbatim medication name that is either preprinted or collected on a CRF.,Req
Interventions,CM,8,CMMODIFY,Modified Reported Name,Char,,,,Synonym Qualifier,"If CMTRT is modified to facilitate coding, then CMMODIFY will contain the modified text.",Perm
Interventions,CM,9,CMDECOD,Standardized Medication Name,Char,,,,Synonym Qualifier,"Standardized or dictionary-derived text description of CMTRT or CMMODIFY. Equivalent to the generic drug name in WHO Drug. The sponsor is expected to provide the dictionary name and version used to map the terms utilizing the external codelist element in the Define-XML document. If an intervention term does not have a decode value in the dictionary, then CMDECOD will be left blank.",Perm
Interventions,CM,10,CMCAT,Category for Medication,Char,,,,Grouping Qualifier,"Used to define a category of medications/treatment. Examples: ""PRIOR"", ""CONCOMITANT"", ""ANTI-CANCER MEDICATION"", ""GENERAL CONMED"".",Perm
Interventions,CM,11,CMSCAT,Subcategory for Medication,Char,,,,Grouping Qualifier,"A further categorization of medications/treatment. Examples: ""CHEMOTHERAPY"", ""HORMONAL THERAPY"", ""ALTERNATIVE THERAPY"".",Perm
Interventions,CM,12,CMPRESP,CM Pre-specified,Char,NY,,,Variable Qualifier,"Used to indicate whether (""Y""/null) information about the use of a specific medication was solicited on the CRF.",Perm
Interventions,CM,13,CMOCCUR,CM Occurrence,Char,NY,,,Record Qualifier,"When the use of a specific medication is solicited. CMOCCUR is used to indicate whether (""Y""/""N"") use of the medication occurred. Values are null for medications not specifically solicited.",Perm
Interventions,CM,14,CMSTAT,Completion Status,Char,ND,,,Record Qualifier,"Used to indicate that a question about the occurrence of a prespecified intervention was not answered. Should be null or have a value of ""NOT DONE"".",Perm
Interventions,CM,15,CMREASND,Reason Medication Not Collected,Char,,,,Record Qualifier,"Reason not done. Used in conjunction with CMSTAT when value is ""NOT DONE"".",Perm
Interventions,CM,16,CMINDC,Indication,Char,,,,Record Qualifier,"Denotes why a medication was taken or administered. Examples: ""NAUSEA"", ""HYPERTENSION"".",Perm
Interventions,CM,17,CMCLAS,Medication Class,Char,,,,Variable Qualifier,"Drug class. May be obtained from coding. When coding to a single class, populate with class value. If using a dictionary and coding to multiple classes, then follow Section 4.2.8.3, Multiple Values for a Non-result Qualifier Variable, or omit CMCLAS.",Perm
Interventions,CM,18,CMCLASCD,Medication Class Code,Char,,,,Variable Qualifier,"Class code corresponding to CMCLAS. Drug class. May be obtained from coding. When coding to a single class, populate with class code. If using a dictionary and coding to multiple classes, then follow Section 4.2.8.3, Multiple Values for a Non-result Qualifier Variable, or omit CMCLASCD.",Perm
Interventions,CM,19,CMDOSE,Dose per Administration,Num,,,,Record Qualifier,Amount of CMTRT given. Not populated when CMDOSTXT is populated.,Perm
Interventions,CM,20,CMDOSTXT,Dose Description,Char,,,,Record Qualifier,"Dosing amounts or a range of dosing information collected in text form. Units may be stored in CMDOSU. Examples: ""200-400"", ""15-20"". Not populated when CMDOSE is populated.",Perm
Interventions,CM,21,CMDOSU,Dose Units,Char,UNIT,,,Variable Qualifier,"Units for CMDOSE, CMDOSTOT, or CMDOSTXT. Examples: ""ng"", ""mg"", ""mg/kg"".",Perm
Interventions,CM,22,CMDOSFRM,Dose Form,Char,FRM,,,Variable Qualifier,"Dose form for CMTRT. Examples: ""TABLET"", ""LOTION"".",Perm
Interventions,CM,23,CMDOSFRQ,Dosing Frequency per Interval,Char,FREQ,,,Record Qualifier,"Usually expressed as the number of repeated administrations of CMDOSE within a specific time period. Examples: ""BID"" (twice daily), ""Q12H"" (every 12 hours).",Perm
Interventions,CM,24,CMDOSTOT,Total Daily Dose,Num,,,,Record Qualifier,Total daily dose of CMTRT using the units in CMDOSU. Used when dosing is collected as total daily dose. Total dose over a period other than day could be recorded in a separate supplemental qualifier variable.,Perm
Interventions,CM,25,CMDOSRGM,Intended Dose Regimen,Char,,,,Record Qualifier,"Text description of the (intended) schedule or regimen for the Intervention. Example: ""TWO WEEKS ON, TWO WEEKS OFF"".",Perm
Interventions,CM,26,CMROUTE,Route of Administration,Char,ROUTE,,,Variable Qualifier,"Route of administration for the intervention. Examples: ""ORAL"", ""INTRAVENOUS"".",Perm
Interventions,CM,27,CMADJ,Reason for Dose Adjustment,Char,,,,Record Qualifier,"Describes reason or explanation of why a dose is adjusted. Examples: ""ADVERSE EVENT"", ""INSUFFICIENT RESPONSE"", ""NON-MEDICAL REASON"".",Perm
Interventions,CM,28,CMRSDISC,Reason the Intervention Was Discontinued,Char,,,,Record Qualifier,"When dosing of a treatment is recorded over multiple successive records, this variable is applicable only for the (chronologically) last record for the treatment.",Perm
Interventions,CM,29,TAETORD,Planned Order of Element within Arm,Num,,,,Timing,Number that gives the planned order of the element within the arm for the element in which the medication administration started. Null for medications that started before study participation.,Perm
Interventions,CM,30,EPOCH,Epoch,Char,EPOCH,,,Timing,Epoch associated with the start date/time of the medication administration. Null for medications that started before study participation.,Perm
Interventions,CM,31,CMSTDTC,Start Date/Time of Medication,Char,,,ISO 8601 datetime or interval,Timing,Start date/time of the medication administration represented in ISO 8601 character format.,Perm
Interventions,CM,32,CMENDTC,End Date/Time of Medication,Char,,,ISO 8601 datetime or interval,Timing,End date/time of the medication administration represented in ISO 8601 character format.,Perm
Interventions,CM,33,CMSTDY,Study Day of Start of Medication,Num,,,,Timing,Study day of start of medication relative to the sponsor-defined RFSTDTC.,Perm
Interventions,CM,34,CMENDY,Study Day of End of Medication,Num,,,,Timing,Study day of end of medication relative to the sponsor-defined RFSTDTC.,Perm
Interventions,CM,35,CMDUR,Duration,Char,,,ISO 8601 duration,Timing,Collected duration for a treatment episode. Used only if collected on the CRF and not derived from start and end date/times.,Perm
Interventions,CM,36,CMSTRF,Start Relative to Reference Period,Char,STENRF,,,Timing,"Describes the start of the medication relative to sponsor-defined reference period. The sponsor-defined reference period is a continuous period of time defined by a discrete starting point and a discrete ending point (represented by RFSTDTC and RFENDTC in Demographics). If information such as ""PRIOR"" was collected, this information may be translated into CMSTRF. \n Not all values of the codelist are allowable for this variable. See Section 4.4.7, Use of Relative Timing Variables.",Perm
Interventions,CM,37,CMENRF,End Relative to Reference Period,Char,STENRF,,,Timing,"Describes the end of the medication relative to the sponsor-defined reference period. The sponsor-defined reference period is a continuous period of time defined by a discrete starting point and a discrete ending point (represented by RFSTDTC and RFENDTC in Demographics). If information such as ""PRIOR"", ""ONGOING, or ""CONTINUING"" was collected, this information may be translated into CMENRF. \n Not all values of the codelist are allowable for this variable. See Section 4.4.7, Use of Relative Timing Variables.",Perm
Interventions,CM,38,CMSTRTPT,Start Relative to Reference Time Point,Char,STENRF,,,Timing,"Identifies the start of the medication as being before or after the sponsor-defined reference time point defined by variable CMSTTPT. \n Not all values of the codelist are allowable for this variable. See Section 4.4.7, Use of Relative Timing Variables.",Perm
Interventions,CM,39,CMSTTPT,Start Reference Time Point,Char,,,,Timing,"Description or date/time in ISO 8601 character format of the sponsor-defined reference point referred to by CMSTRTPT. Examples: ""2003-12-15"", ""VISIT 1"".",Perm
Interventions,CM,40,CMENRTPT,End Relative to Reference Time Point,Char,STENRF,,,Timing,"Identifies the end of the medication as being before or after the sponsor-defined reference time point defined by variable CMENTPT. \n Not all values of the codelist are allowable for this variable. See Section 4.4.7, Use of Relative Timing Variables.",Perm
Interventions,CM,41,CMENTPT,End Reference Time Point,Char,,,,Timing,"Description or date/time in ISO 8601 character format of the sponsor-defined reference point referred to by CMENRTPT. Examples: ""2003-12-25"", ""VISIT 2"".",Perm
Interventions,EC,1,STUDYID,Study Identifier,Char,,,,Identifier,Unique identifier for a study.,Req
Interventions,EC,2,DOMAIN,Domain Abbreviation,Char,,EC,,Identifier,Two-character abbreviation for the domain.,Req
Interventions,EC,3,USUBJID,Unique Subject Identifier,Char,,,,Identifier,Identifier used to uniquely identify a subject across all studies for all applications or submissions involving the product.,Req
Interventions,EC,4,ECSEQ,Sequence Number,Num,,,,Identifier,Sequence number given to ensure uniqueness of subject records within a domain. May be any valid number.,Req
Interventions,EC,5,ECGRPID,Group ID,Char,,,,Identifier,Used to tie together a block of related records in a single domain for a subject.,Perm
Interventions,EC,6,ECREFID,Reference ID,Char,,,,Identifier,"Internal or external identifier (e.g., kit number, bottle label, vial identifier).",Perm
Interventions,EC,7,ECSPID,Sponsor-Defined Identifier,Char,,,,Identifier,Sponsor-defined reference number. May be preprinted on the CRF as an explicit line identifier or defined in the sponsor's operational database. Example: Line number on a CRF page.,Perm
Interventions,EC,8,ECLNKID,Link ID,Char,,,,Identifier,Identifier used to link related records across domains.,Perm
Interventions,EC,9,ECLNKGRP,Link Group ID,Char,,,,Identifier,"Identifier used to link related, grouped records across domains.",Perm
Interventions,EC,10,ECTRT,Name of Treatment,Char,,,,Topic,Name of the intervention treatment known to the subject and/or administrator.,Req
Interventions,EC,11,ECMOOD,Mood,Char,BRDGMOOD,,,Record Qualifier,"Mode or condition of the record specifying whether the intervention (activity) is intended to happen or has happened. Values align with BRIDG pillars (e.g., scheduled context, performed context) and HL7 activity moods (e.g., intent, event). Examples: ""SCHEDULED"", ""PERFORMED"".",Perm
Interventions,EC,12,ECCAT,Category of Treatment,Char,,,,Grouping Qualifier,Used to define a category of related ECTRT values.,Perm
Interventions,EC,13,ECSCAT,Subcategory of Treatment,Char,,,,Grouping Qualifier,A further categorization of ECCAT values.,Perm
Interventions,EC,14,ECPRESP,Pre-Specified,Char,NY,,,Variable Qualifier,"Used when a specific intervention is prespecified. Values should be ""Y"" or null.",Perm
Interventions,EC,15,ECOCCUR,Occurrence,Char,NY,,,Record Qualifier,"Used to indicate whether a treatment occurred when information about the occurrence is solicited. ECOCCUR = ""N"" when a treatment was not taken, not given, or missed.",Perm
Interventions,EC,16,ECREASOC,Reason for Occur Value,Char,,,,Record Qualifier,"The reason for the value in --OCCUR. If --OCCUR = ""N"", this is the reason the exposure did not occur.",Perm
Interventions,EC,17,ECDOSE,Dose,Num,,,,Record Qualifier,Amount of ECTRT when numeric. Not populated when ECDOSTXT is populated.,Exp
Interventions,EC,18,ECDOSTXT,Dose Description,Char,,,,Record Qualifier,"Amount of ECTRT when non-numeric. Dosing amounts or a range of dosing information collected in text form. Example: ""200-400"". Not populated when ECDOSE is populated.",Perm
Interventions,EC,19,ECDOSU,Dose Units,Char,UNIT,,,Variable Qualifier,"Units for ECDOSE, ECDOSTOT, or ECDOSTXT.",Exp
Interventions,EC,20,ECDOSFRM,Dose Form,Char,FRM,,,Variable Qualifier,"Dose form for ECTRT. Examples: ""TABLET"", ""LOTION"".",Exp
Interventions,EC,21,ECDOSFRQ,Dosing Frequency per Interval,Char,FREQ,,,Record Qualifier,"Usually expressed as the number of repeated administrations of ECDOSE within a specific time period. Examples: ""Q2H"", ""QD"", ""BID"".",Perm
Interventions,EC,22,ECDOSTOT,Total Daily Dose,Num,,,,Record Qualifier,Total daily dose of ECTRT using the units in ECDOSU. Used when dosing is collected as total daily dose.,Perm
Interventions,EC,23,ECDOSRGM,Intended Dose Regimen,Char,,,,Record Qualifier,"Text description of the intended schedule or regimen for the Intervention. Example: ""TWO WEEKS ON"", ""TWO WEEKS OFF"".",Perm
Interventions,EC,24,ECROUTE,Route of Administration,Char,ROUTE,,,Variable Qualifier,"Route of administration for the intervention. Examples: ""ORAL"", ""INTRAVENOUS"".",Perm
Interventions,EC,25,ECLOT,Lot Number,Char,,,,Record Qualifier,Lot number of the ECTRT product.,Perm
Interventions,EC,26,ECLOC,Location of Dose Administration,Char,LOC,,,Record Qualifier,"Specifies location of administration. Example: ""ARM"", ""LIP"".",Perm
Interventions,EC,27,ECLAT,Laterality,Char,LAT,,,Variable Qualifier,"Qualifier for anatomical location further detailing laterality of the intervention administration. Examples: ""LEFT"", ""RIGHT"".",Perm
Interventions,EC,28,ECDIR,Directionality,Char,DIR,,,Variable Qualifier,"Qualifier for anatomical location further detailing directionality. Examples: ""ANTERIOR"", ""LOWER"", ""PROXIMAL"", ""UPPER"".",Perm
Interventions,EC,29,ECPORTOT,Portion or Totality,Char,PORTOT,,,Variable Qualifier,"Qualifier for anatomical location further detailing distribution (i.e., arrangement of, apportioning of). Examples: ""ENTIRE"", ""SINGLE"", ""SEGMENT"".",Perm
Interventions,EC,30,ECFAST,Fasting Status,Char,NY,,,Record Qualifier,"Indicator used to identify fasting status. Examples: ""Y"", ""N"".",Perm
Interventions,EC,31,ECPSTRG,Pharmaceutical Strength,Num,,,,Record Qualifier,"Amount of an active ingredient expressed quantitatively per dosage unit, per unit of volume, or per unit of weight, according to the pharmaceutical dose form.",Perm
Interventions,EC,32,ECPSTRGU,Pharmaceutical Strength Units,Char,UNIT,,,Variable Qualifier,"Unit for ECPSTRG. Examples: ""mg/TABLET"", ""mg/mL"".",Perm
Interventions,EC,33,ECADJ,Reason for Dose Adjustment,Char,,,,Record Qualifier,Describes reason or explanation of why a dose is adjusted.,Perm
Interventions,EC,34,TAETORD,Planned Order of Element within Arm,Num,,,,Timing,Number that gives the planned order of the element within the arm.,Perm
Interventions,EC,35,EPOCH,Epoch,Char,EPOCH,,,Timing,"Trial epoch of the exposure as collected record. Examples: ""RUN-IN"", ""TREATMENT"".",Perm
Interventions,EC,36,ECSTDTC,Start Date/Time of Treatment,Char,,,ISO 8601 datetime or interval,Timing,The date/time when administration of the treatment indicated by ECTRT and ECDOSE began.,Exp
Interventions,EC,37,ECENDTC,End Date/Time of Treatment,Char,,,ISO 8601 datetime or interval,Timing,"The date/time when administration of the treatment indicated by ECTRT and ECDOSE ended. For administrations considered given at a point in time (e.g., oral tablet, pre-filled syringe injection), where only an administration date/time is collected, ECSTDTC should be copied to ECENDTC as the standard representation.",Exp
Interventions,EC,38,ECSTDY,Study Day of Start of Treatment,Num,,,,Timing,Study day of ECSTDTC relative to the sponsor-defined DM.RFSTDTC.,Perm
Interventions,EC,39,ECENDY,Study Day of End of Treatment,Num,,,,Timing,Study day of ECENDTC relative to the sponsor-defined DM.RFSTDTC.,Perm
Interventions,EC,40,ECDUR,Duration of Treatment,Char,,,ISO 8601 duration,Timing,Collected duration of administration. Used only if collected on the CRF and not derived from start and end date/times.,Perm
Interventions,EC,41,ECTPT,Planned Time Point Name,Char,,,,Timing,"Text description of time when administration should occur. This may be represented as an elapsed time relative to a fixed reference point, such as time of last dose. See ECTPTNUM and ECTPTREF.",Perm
Interventions,EC,42,ECTPTNUM,Planned Time Point Number,Num,,,,Timing,Numerical version of ECTPT to aid in sorting.,Perm
Interventions,EC,43,ECELTM,Planned Elapsed Time from Time Point Ref,Char,,,ISO 8601 duration,Timing,Planned elapsed time relative to the planned fixed reference (ECTPTREF). This variable is useful where there are repetitive measures. Not a clock time.,Perm
Interventions,EC,44,ECTPTREF,Time Point Reference,Char,,,,Timing,"Name of the fixed reference point referred to by ECELTM, ECTPTNUM, and ECTPT. Examples: ""PREVIOUS DOSE"", ""PREVIOUS MEAL"".",Perm
Interventions,EC,45,ECRFTDTC,Date/Time of Reference Time Point,Char,,,ISO 8601 datetime or interval,Timing,Date/time for a fixed reference time point defined by ECTPTREF.,Perm
Interventions,EX,1,STUDYID,Study Identifier,Char,,,,Identifier,Unique identifier for a study.,Req
Interventions,EX,2,DOMAIN,Domain Abbreviation,Char,,EX,,Identifier,Two-character abbreviation for the domain.,Req
Interventions,EX,3,USUBJID,Unique Subject Identifier,Char,,,,Identifier,Identifier used to uniquely identify a subject across all studies for all applications or submissions involving the product.,Req
Interventions,EX,4,EXSEQ,Sequence Number,Num,,,,Identifier,Sequence number given to ensure uniqueness of subject records within a domain. May be any valid number.,Req
Interventions,EX,5,EXGRPID,Group ID,Char,,,,Identifier,Used to tie together a block of related records in a single domain for a subject.,Perm
Interventions,EX,6,EXREFID,Reference ID,Char,,,,Identifier,"Internal or external identifier (e.g., kit number, bottle label, vial identifier).",Perm
Interventions,EX,7,EXSPID,Sponsor-Defined Identifier,Char,,,,Identifier,Sponsor-defined reference number. May be preprinted on the CRF as an explicit line identifier or defined in the sponsor's operational database. Example: Line number on a CRF page.,Perm
Interventions,EX,8,EXLNKID,Link ID,Char,,,,Identifier,Identifier used to link related records across domains.,Perm
Interventions,EX,9,EXLNKGRP,Link Group ID,Char,,,,Identifier,"Identifier used to link related, grouped records across domains.",Perm
Interventions,EX,10,EXTRT,Name of Treatment,Char,,,,Topic,Name of the protocol-specified study treatment given during the dosing period for the observation.,Req
Interventions,EX,11,EXCAT,Category of Treatment,Char,,,,Grouping Qualifier,Used to define a category of EXTRT values.,Perm
Interventions,EX,12,EXSCAT,Subcategory of Treatment,Char,,,,Grouping Qualifier,A further categorization of EXCAT values.,Perm
Interventions,EX,13,EXDOSE,Dose,Num,,,,Record Qualifier,Amount of EXTRT when numeric. Not populated when EXDOSTXT is populated.,Exp
Interventions,EX,14,EXDOSTXT,Dose Description,Char,,,,Record Qualifier,"Amount of EXTRT when non-numeric. Dosing amounts or a range of dosing information collected in text form. Example: ""200-400"". Not populated when EXDOSE is populated.",Perm
Interventions,EX,15,EXDOSU,Dose Units,Char,UNIT,,,Variable Qualifier,"Units for EXDOSE, EXDOSTOT, or EXDOSTXT representing protocol-specified values. Examples: ""ng"", ""mg"", ""mg/kg"", ""mg/m2"".",Exp
Interventions,EX,16,EXDOSFRM,Dose Form,Char,FRM,,,Variable Qualifier,"Dose form for EXTRT. Examples: ""TABLET"", ""LOTION"".",Exp
Interventions,EX,17,EXDOSFRQ,Dosing Frequency per Interval,Char,FREQ,,,Record Qualifier,"Usually expressed as the number of repeated administrations of EXDOSE within a specific time period. Examples: ""Q2H"", ""QD"", ""BID"".",Perm
Interventions,EX,18,EXDOSRGM,Intended Dose Regimen,Char,,,,Record Qualifier,"Text description of the intended schedule or regimen for the Intervention. Example: ""TWO WEEKS ON, TWO WEEKS OFF"".",Perm
Interventions,EX,19,EXROUTE,Route of Administration,Char,ROUTE,,,Variable Qualifier,"Route of administration for the intervention. Examples: ""ORAL"", ""INTRAVENOUS"".",Perm
Interventions,EX,20,EXLOT,Lot Number,Char,,,,Record Qualifier,Lot number of the intervention product.,Perm
Interventions,EX,21,EXLOC,Location of Dose Administration,Char,LOC,,,Record Qualifier,"Specifies location of administration. Examples: ""ARM"", ""LIP"".",Perm
Interventions,EX,22,EXLAT,Laterality,Char,LAT,,,Variable Qualifier,"Qualifier for anatomical location further detailing laterality of the intervention administration. Examples: ""LEFT"", ""RIGHT"".",Perm
Interventions,EX,23,EXDIR,Directionality,Char,DIR,,,Variable Qualifier,"Qualifier for anatomical location further detailing directionality. Examples: ""ANTERIOR"", ""LOWER"", ""PROXIMAL"", ""UPPER"".",Perm
Interventions,EX,24,EXFAST,Fasting Status,Char,NY,,,Record Qualifier,"Indicator used to identify fasting status. Examples: ""Y"", ""N"".",Perm
Interventions,EX,25,EXADJ,Reason for Dose Adjustment,Char,,,,Record Qualifier,Describes reason or explanation of why a dose is adjusted.,Perm
Interventions,EX,26,TAETORD,Planned Order of Element within Arm,Num,,,,Timing,Number that gives the planned order of the element within the arm.,Perm
Interventions,EX,27,EPOCH,Epoch,Char,EPOCH,,,Timing,"Trial epoch of the exposure record. Examples: ""RUN-IN"", ""TREATMENT"".",Perm
Interventions,EX,28,EXSTDTC,Start Date/Time of Treatment,Char,,,ISO 8601 datetime or interval,Timing,The date/time when administration of the treatment indicated by EXTRT and EXDOSE began.,Exp
Interventions,EX,29,EXENDTC,End Date/Time of Treatment,Char,,,ISO 8601 datetime or interval,Timing,"The date/time when administration of the treatment indicated by EXTRT and EXDOSE ended. For administrations considered given at a point in time (e.g., oral tablet, pre-filled syringe injection), where only an administration date/time is collected, EXSTDTC should be copied to EXENDTC as the standard representation.",Exp
Interventions,EX,30,EXSTDY,Study Day of Start of Treatment,Num,,,,Timing,Study day of EXSTDTC relative to DM.RFSTDTC.,Perm
Interventions,EX,31,EXENDY,Study Day of End of Treatment,Num,,,,Timing,Study day of EXENDTC relative to DM.RFSTDTC.,Perm
Interventions,EX,32,EXDUR,Duration of Treatment,Char,,,ISO 8601 duration,Timing,Collected duration of administration. Used only if collected on the CRF and not derived from start and end date/times.,Perm
Interventions,EX,33,EXTPT,Planned Time Point Name,Char,,,,Timing,"Text description of time when administration should occur. This may be represented as an elapsed time relative to a fixed reference point, such as time of last dose. See EXTPTNUM and EXTPTREF.",Perm
Interventions,EX,34,EXTPTNUM,Planned Time Point Number,Num,,,,Timing,Numerical version of EXTPT to aid in sorting.,Perm
Interventions,EX,35,EXELTM,Planned Elapsed Time from Time Point Ref,Char,,,ISO 8601 duration,Timing,Planned elapsed time relative to the planned fixed reference (EXTPTREF). This variable is useful where there are repetitive measures. Not a clock time.,Perm
Interventions,EX,36,EXTPTREF,Time Point Reference,Char,,,,Timing,"Name of the fixed reference point referred to by EXELTM, EXTPTNUM, and EXTPT. Examples: PREVIOUS DOSE, PREVIOUS MEAL.",Perm
Interventions,EX,37,EXRFTDTC,Date/Time of Reference Time Point,Char,,,ISO 8601 datetime or interval,Timing,Date/time for a fixed reference time point defined by EXTPTREF.,Perm
Interventions,ML,1,STUDYID,Study Identifier,Char,,,,Identifier,Unique identifier for a study.,Req
Interventions,ML,2,DOMAIN,Domain Abbreviation,Char,,ML,,Identifier,Two-character abbreviation for the domain.,Req
Interventions,ML,3,USUBJID,Unique Subject Identifier,Char,,,,Identifier,Identifier used to uniquely identify a subject across all studies for all applications or submissions involving the product.,Req
Interventions,ML,4,MLSEQ,Sequence Number,Num,,,,Identifier,Sequence number given to ensure uniqueness of subject records within a domain. May be any valid number.,Req
Interventions,ML,5,MLGRPID,Group ID,Char,,,,Identifier,Used to tie together a block of related records in a single domain for a subject.,Perm
Interventions,ML,6,MLSPID,Sponsor-Defined Identifier,Char,,,,Identifier,"Sponsor-defined reference number. Examples: a number preprinted on the CRF as an explicit line identifier, record identifier defined in the sponsor's operational database.",Perm
Interventions,ML,7,MLTRT,Name of Meal,Char,,,,Topic,Verbatim food product name that is either preprinted or collected on a CRF.,Req
Interventions,ML,8,MLCAT,Category for Meal,Char,,,,Grouping Qualifier,Used to define a category of MLTRT values.,Perm
Interventions,ML,9,MLSCAT,Subcategory for Meal,Char,,,,Grouping Qualifier,Used to define a further categorization of MLCAT values.,Perm
Interventions,ML,10,MLPRESP,ML Pre-specified,Char,NY,,,Variable Qualifier,"Used when a specific meal is prespecified on a CRF. Values should be ""Y"" or null.",Perm
Interventions,ML,11,MLOCCUR,ML Occurrence,Char,NY,,,Record Qualifier,Used to record whether a prespecified meal occurred when information about the occurrence of a specific meal is solicited.,Perm
Interventions,ML,12,MLSTAT,Completion Status,Char,ND,,,Record Qualifier,"Used to indicate when a question about the occurrence of a prespecified meal was not answered. Should be null or have a value of ""NOT DONE"".",Perm
Interventions,ML,13,MLREASND,Reason Meal Not Collected,Char,,,,Record Qualifier,"Describes the reason a response to a question about the occurrence of a meal was not collected. Used in conjunction with MLSTAT when value is ""NOT DONE"".",Perm
Interventions,ML,14,MLDOSE,Dose,Num,,,,Record Qualifier,Amount of MLTRT consumed. Not populated when MLDOSTXT is populated.,Perm
Interventions,ML,15,MLDOSTXT,Dose Description,Char,,,,Record Qualifier,"Amount description of MLTRT consumed, collected in text form. Not populated when MLDOSE is populated. Examples: ""<1 per day"", ""200-400"".",Perm
Interventions,ML,16,MLDOSU,Dose Units,Char,UNIT,,,Variable Qualifier,"Units for MLDOSE, MLDOSTOT, or MLDOSTXT.",Perm
Interventions,ML,17,MLDOSFRM,Dose Form,Char,FRM,,,Variable Qualifier,"Dosage form for MLTRT. Example: ""BAR, CHEWABLE"".",Perm
Interventions,ML,18,VISITNUM,Visit Number,Num,,,,Timing,"Clinical encounter number. Numeric version of VISIT, used for sorting.",Perm
Interventions,ML,19,VISIT,Visit Name,Char,,,,Timing,Protocol-defined description of a clinical encounter.,Perm
Interventions,ML,20,VISITDY,Planned Study Day of Visit,Num,,,,Timing,Planned study day of VISIT. Should be an integer.,Perm
Interventions,ML,21,TAETORD,Planned Order of Element within Arm,Num,,,,Timing,Number that gives the planned order of the element within the arm for the element in which the meal started.,Perm
Interventions,ML,22,EPOCH,Epoch,Char,EPOCH,,,Timing,Epoch associated with the start date/time of the meal.,Perm
Interventions,ML,23,MLDTC,Date/Time of Collection,Char,,,ISO 8601 datetime or interval,Timing,Collection date and time of the meal represented in ISO 8601 character format.,Perm
Interventions,ML,24,MLSTDTC,Start Date/Time of Meal,Char,,,ISO 8601 datetime or interval,Timing,Start date/time of the meal represented in ISO 8601 character format.,Perm
Interventions,ML,25,MLENDTC,End Date/Time of Meal,Char,,,ISO 8601 datetime or interval,Timing,End date/time of the meal represented in ISO 8601 character format.,Perm
Interventions,ML,26,MLDY,Study Day of Visit/Collection/Exam,Num,,,,Timing,Actual study day of the visit/collection expressed in integer days relative to the sponsor-defined RFSTDTC in Demographics.,Perm
Interventions,ML,27,MLSTDY,Study Day of Start of Meal,Num,,,,Timing,Actual study day of start of the meal expressed in integer days relative to sponsor-defined RFSTDTC in Demographics.,Perm
Interventions,ML,28,MLENDY,Study Day of End of Meal,Num,,,,Timing,Actual study day of end of the meal expressed in integer days relative to the sponsor-defined RFSTDTC in Demographics.,Perm
Interventions,ML,29,MLDUR,Duration of Meal,Char,,,ISO 8601 duration,Timing,Collected duration of the meal represented in ISO 8601 character format. Used only if collected on the CRF and not derived.,Perm
Interventions,ML,30,MLTPT,Planned Time Point Name,Char,,,,Timing,Text description of time when a measurement or observation should be taken as defined in the protocol. This may be represented as an elapsed time relative to a fixed reference point. See MLTPTNUM and MLTPTREF.,Perm
Interventions,ML,31,MLTPTNUM,Planned Time Point Number,Num,,,,Timing,Numeric version of planned time point used in sorting.,Perm
Interventions,ML,32,MLELTM,Planned Elapsed Time from Time Point Ref,Char,,,ISO 8601 duration,Timing,Planned elapsed time (in ISO 8601) relative to the planned fixed reference (MLTPTREF). This variable is useful when there are repetitive measures. Not a clock time or a date/time variable. Represented as an ISO 8601 duration.,Perm
Interventions,ML,33,MLTPTREF,Time Point Reference,Char,,,,Timing,"Description of the fixed reference point referred to by MLELTM, MLTPTNUM, and MLTPT.",Perm
Interventions,ML,34,MLRFTDTC,Date/Time of Reference Time Point,Char,,,ISO 8601 datetime or interval,Timing,Date/time for a fixed reference time point defined by MLTPTREF in ISO 8601 character format.,Perm
Interventions,ML,35,MIDS,Disease Milestone Instance Name,Char,,,,Timing,The name of a specific instance of a disease milestone type (MIDSTYPE) described in the Trial Disease Milestones dataset. This should be unique within a subject. Used only in conjunction with RELMIDS and MIDSDTC.,Perm
Interventions,ML,36,RELMIDS,Temporal Relation to Milestone Instance,Char,,,,Timing,"The temporal relationship of the observation to the disease milestone instance name in MIDS. Examples: ""IMMEDIATELY BEFORE"", ""AT TIME OF"", ""AFTER"".",Perm
Interventions,ML,37,MIDSDTC,Disease Milestone Instance Date/Time,Char,,,ISO 8601 datetime or interval,Timing,"The start date/time of the disease milestone instance name in MIDS, in ISO 8601 format.",Perm
Interventions,PR,1,STUDYID,Study Identifier,Char,,,,Identifier,Unique identifier for a study.,Req
Interventions,PR,2,DOMAIN,Domain Abbreviation,Char,,PR,,Identifier,Two-character abbreviation for the domain.,Req
Interventions,PR,3,USUBJID,Unique Subject Identifier,Char,,,,Identifier,Identifier used to uniquely identify a subject across all studies for all applications or submissions involving the product.,Req
Interventions,PR,4,PRSEQ,Sequence Number,Num,,,,Identifier,Sequence number given to ensure uniqueness of subject records within a domain. May be any valid number.,Req
Interventions,PR,5,PRGRPID,Group ID,Char,,,,Identifier,Used to link together a block of related records within a subject in a domain.,Perm
Interventions,PR,6,PRSPID,Sponsor-Defined Identifier,Char,,,,Identifier,"Sponsor-defined identifier. Example: preprinted line identifier on a CRF, record identifier defined in the sponsor's operational database.",Perm
Interventions,PR,7,PRLNKID,Link ID,Char,,,,Identifier,Used to facilitate identification of relationships between records.,Perm
Interventions,PR,8,PRLNKGRP,Link Group ID,Char,,,,Identifier,Used to facilitate identification of relationships between records.,Perm
Interventions,PR,9,PRTRT,Reported Name of Procedure,Char,,,,Topic,"Name of procedure performed, either preprinted or collected on a CRF.",Req
Interventions,PR,10,PRDECOD,Standardized Procedure Name,Char,PROCEDUR,,,Synonym Qualifier,"Standardized or dictionary-derived name of PRTRT. If the codelist ""PROCEDUR"" is not used, the sponsor is expected to provide the dictionary name and version used to map the terms in the external codelist element in the Define-XML document. If an intervention term does not have a decode value, then PRDECOD will be null.",Perm
Interventions,PR,11,PRCAT,Category,Char,,,,Grouping Qualifier,Used to define a category of procedure values.,Perm
Interventions,PR,12,PRSCAT,Subcategory,Char,,,,Grouping Qualifier,Used to define a further categorization of PRCAT values.,Perm
Interventions,PR,13,PRPRESP,Pre-specified,Char,NY,,,Variable Qualifier,"Used when a specific procedure is pre-specified on a CRF. Values should be ""Y"" or null.",Perm
Interventions,PR,14,PROCCUR,Occurrence,Char,NY,,,Record Qualifier,Used to record whether a prespecified procedure occurred when information about the occurrence of a specific procedure is solicited.,Perm
Interventions,PR,15,PRINDC,Indication,Char,,,,Record Qualifier,"Denotes the indication for the procedure (e.g., why the procedure was performed).",Perm
Interventions,PR,16,PRDOSE,Dose,Num,,,,Record Qualifier,Amount of PRTRT administered. Not populated when PRDOSTXT is populated.,Perm
Interventions,PR,17,PRDOSTXT,Dose Description,Char,,,,Record Qualifier,"Dosing information collected in text form. Examples: ""<1"", ""200-400"". Not populated when PRDOSE is populated.",Perm
Interventions,PR,18,PRDOSU,Dose Units,Char,UNIT,,,Variable Qualifier,"Units for PRDOSE, PRDOSTOT, or PRDOSTXT.",Perm
Interventions,PR,19,PRDOSFRM,Dose Form,Char,FRM,,,Variable Qualifier,Dose form for PRTRT.,Perm
Interventions,PR,20,PRDOSFRQ,Dosing Frequency per Interval,Char,FREQ,,,Record Qualifier,Usually expressed as the number of doses given per a specific interval.,Perm
Interventions,PR,21,PRDOSRGM,Intended Dose Regimen,Char,,,,Record Qualifier,Text description of the intended schedule or regimen for the procedure.,Perm
Interventions,PR,22,PRROUTE,Route of Administration,Char,ROUTE,,,Variable Qualifier,Route of administration for PRTRT.,Perm
Interventions,PR,23,PRLOC,Location of Procedure,Char,LOC,,,Record Qualifier,Anatomical location of a procedure.,Perm
Interventions,PR,24,PRLAT,Laterality,Char,LAT,,,Variable Qualifier,Qualifier for anatomical location or specimen further detailing laterality.,Perm
Interventions,PR,25,PRDIR,Directionality,Char,DIR,,,Variable Qualifier,Qualifier for anatomical location or specimen further detailing directionality.,Perm
Interventions,PR,26,PRPORTOT,Portion or Totality,Char,PORTOT,,,Variable Qualifier,"Qualifier for anatomical location or specimen further detailing the distribution, which means arrangement of, apportioning of.",Perm
Interventions,PR,27,VISITNUM,Visit Number,Num,,,,Timing,"Clinical encounter number. Numeric version of VISIT, used for sorting.",Perm
Interventions,PR,28,VISIT,Visit Name,Char,,,,Timing,Protocol-defined description of a clinical encounter.,Perm
Interventions,PR,29,VISITDY,Planned Study Day of Visit,Num,,,,Timing,Planned study day of VISIT. Should be an integer.,Perm
Interventions,PR,30,TAETORD,Planned Order of Element within Arm,Num,,,,Timing,Number that gives the planned order of the element within the arm.,Perm
Interventions,PR,31,EPOCH,Epoch,Char,EPOCH,,,Timing,Epoch associated with the start date/time of the procedure.,Perm
Interventions,PR,32,PRSTDTC,Start Date/Time of Procedure,Char,,,ISO 8601 datetime or interval,Timing,Start date/time of the procedure represented in ISO 8601 character format.,Exp
Interventions,PR,33,PRENDTC,End Date/Time of Procedure,Char,,,ISO 8601 datetime or interval,Timing,End date/time of the procedure represented in ISO 8601 character format.,Perm
Interventions,PR,34,PRSTDY,Study Day of Start of Procedure,Num,,,,Timing,Study day of start of procedure expressed in integer days relative to the sponsor-defined RFSTDTC in Demographics.,Perm
Interventions,PR,35,PRENDY,Study Day of End of Procedure,Num,,,,Timing,Study day of end of procedure expressed in integer days relative to the sponsor-defined RFSTDTC in Demographics.,Perm
Interventions,PR,36,PRDUR,Duration of Procedure,Char,,,ISO 8601 duration,Timing,Collected duration of a procedure represented in ISO 8601 character format. Used only if collected on the CRF and not derived from start and end date/times.,Perm
Interventions,PR,37,PRTPT,Planned Time Point Name,Char,,,,Timing,"Text description of time when a procedure should be performed. This may be represented as an elapsed time relative to a fixed reference point, such as time of last dose. See PRTPTNUM and PRTPTREF.",Perm
Interventions,PR,38,PRTPTNUM,Planned Time Point Number,Num,,,,Timing,Numerical version of planned time point used in sorting.,Perm
Interventions,PR,39,PRELTM,Planned Elapsed Time from Time Point Ref,Char,,,ISO 8601 duration,Timing,"Planned elapsed time in ISO 8601 format relative to a planned fixed reference (PRTPTREF). This variable is useful where there are repetitive measures. Not a clock time or a date/time variable, but an interval, represented as ISO duration.",Perm
Interventions,PR,40,PRTPTREF,Time Point Reference,Char,,,,Timing,"Description of the fixed reference point referred to by PRELTM, PRTPTNUM, and PRTPT.",Perm
Interventions,PR,41,PRRFTDTC,Date/Time of Reference Time Point,Char,,,ISO 8601 datetime or interval,Timing,Date/time for a fixed reference time point defined by PRTRTREF in ISO 8601 character format.,Perm
Interventions,PR,42,PRSTRTPT,Start Relative to Reference Time Point,Char,STENRF,,,Timing,"Identifies the start of the observation as being before or after the sponsor-defined reference time point defined by variable PRSTTPT. \n Not all values of the codelist are allowable for this variable. See Section 4.4.7, Use of Relative Timing Variables.",Perm
Interventions,PR,43,PRSTTPT,Start Reference Time Point,Char,,,,Timing,"Description or date/time in ISO 8601 character format of the sponsor-defined reference point referred to by PRSTRTPT. Examples: ""2003-12-15"", ""VISIT 1"".",Perm
Interventions,PR,44,PRENRTPT,End Relative to Reference Time Point,Char,STENRF,,,Timing,"Identifies the end of the observation as being before or after the sponsor-defined reference time point defined by variable PRENTPT. \n Not all values of the codelist are allowable for this variable. See Section 4.4.7, Use of Relative Timing Variables.",Perm
Interventions,PR,45,PRENTPT,End Reference Time Point,Char,,,,Timing,"Description or date/time in ISO 8601 character format of the sponsor-defined reference point referred to by PRENRTPT. Examples: ""2003-12-25"", ""VISIT 2"".",Perm
Interventions,SU,1,STUDYID,Study Identifier,Char,,,,Identifier,Unique identifier for a study.,Req
Interventions,SU,2,DOMAIN,Domain Abbreviation,Char,,SU,,Identifier,Two-character abbreviation for the domain.,Req
Interventions,SU,3,USUBJID,Unique Subject Identifier,Char,,,,Identifier,Identifier used to uniquely identify a subject across all studies for all applications or submissions involving the product.,Req
Interventions,SU,4,SUSEQ,Sequence Number,Num,,,,Identifier,Sequence number given to ensure uniqueness of subject records within a domain. May be any valid number.,Req
Interventions,SU,5,SUGRPID,Group ID,Char,,,,Identifier,Used to tie together a block of related records in a single domain for a subject.,Perm
Interventions,SU,6,SUSPID,Sponsor-Defined Identifier,Char,,,,Identifier,Sponsor-defined reference number. May be preprinted on the CRF as an explicit line identifier or defined in the sponsor's operational database. Example: Line number on a Tobacco & Alcohol Use CRF page.,Perm
Interventions,SU,7,SUTRT,Reported Name of Substance,Char,,,,Topic,"Substance name. Examples: ""CIGARETTES"", ""COFFEE"".",Req
Interventions,SU,8,SUMODIFY,Modified Substance Name,Char,,,,Synonym Qualifier,"If SUTRT is modified, then the modified text is placed here.",Perm
Interventions,SU,9,SUDECOD,Standardized Substance Name,Char,,,,Synonym Qualifier,Standardized or dictionary-derived text description of SUTRT or SUMODIFY if the sponsor chooses to code the substance use. The sponsor is expected to provide the dictionary name and version used to map the terms utilizing the external codelist element in the Define-XML document.,Perm
Interventions,SU,10,SUCAT,Category for Substance Use,Char,,,,Grouping Qualifier,"Used to define a category of related records. Examples: ""TOBACCO"", ""ALCOHOL"", or ""CAFFEINE"".",Perm
Interventions,SU,11,SUSCAT,Subcategory for Substance Use,Char,,,,Grouping Qualifier,"A further categorization of substance use. Examples: ""CIGARS"", ""CIGARETTES"", ""BEER"", ""WINE"".",Perm
Interventions,SU,12,SUPRESP,SU Pre-Specified,Char,NY,,,Variable Qualifier,"Used to indicate whether (""Y""/null) information about the use of a specific substance was solicited on the CRF.",Perm
Interventions,SU,13,SUOCCUR,SU Occurrence,Char,NY,,,Record Qualifier,"When the use of specific substances is solicited, SUOCCUR is used to indicate whether (""Y""/""N"") a particular prespecified substance was used. Values are null for substances not specifically solicited.",Perm
Interventions,SU,14,SUSTAT,Completion Status,Char,ND,,,Record Qualifier,"When the use of prespecified substances is solicited, the completion status indicates that there was no response to the question about the prespecified substance. When there is no prespecified list on the CRF, then the completion status indicates that substance use was not assessed for the subject.",Perm
Interventions,SU,15,SUREASND,Reason Substance Use Not Collected,Char,,,,Record Qualifier,"Describes the reason substance use was not collected. Used in conjunction with SUSTAT when value of SUSTAT is ""NOT DONE"".",Perm
Interventions,SU,16,SUCLAS,Substance Use Class,Char,,,,Variable Qualifier,"Substance use class. May be obtained from coding. When coding to a single class, populate with class value. If using a dictionary and coding to multiple classes, then follow Section 4.2.8.3, Multiple Values for a Non-result Qualifier Variable, or omit SUCLAS.",Perm
Interventions,SU,17,SUCLASCD,Substance Use Class Code,Char,,,,Variable Qualifier,Code corresponding to SUCLAS. May be obtained from coding.,Perm
Interventions,SU,18,SUDOSE,Substance Use Consumption,Num,,,,Record Qualifier,Amount of SUTRT consumed. Not populated if SUDOSTXT is populated.,Perm
Interventions,SU,19,SUDOSTXT,Substance Use Consumption Text,Char,,,,Record Qualifier,Substance use consumption amounts or a range of consumption information collected in text form. Not populated if SUDOSE is populated.,Perm
Interventions,SU,20,SUDOSU,Consumption Units,Char,UNIT,,,Variable Qualifier,"Units for SUDOSE, SUDOSTOT, or SUDOSTXT. Examples: ""oz"", ""CIGARETTE"", ""PACK"", ""g"".",Perm
Interventions,SU,21,SUDOSFRM,Dose Form,Char,FRM,,,Variable Qualifier,"Dose form for SUTRT. Examples: ""INJECTABLE"", ""LIQUID"", ""POWDER"".",Perm
Interventions,SU,22,SUDOSFRQ,Use Frequency Per Interval,Char,FREQ,,,Variable Qualifier,"Usually expressed as the number of repeated administrations of SUDOSE within a specific time period. Example: ""Q24H"" (every day).",Perm
Interventions,SU,23,SUDOSTOT,Total Daily Consumption,Num,,,,Record Qualifier,"Total daily use of SUTRT using the units in SUDOSU. Used when dosing is collected as total daily dose. If a sponsor needs to aggregate the data over a period other than daily, then the aggregated total could be recorded in a supplemental qualifier variable.",Perm
Interventions,SU,24,SUROUTE,Route of Administration,Char,ROUTE,,,Variable Qualifier,"Route of administration for SUTRT. Examples: ""ORAL"", ""INTRAVENOUS"".",Perm
Interventions,SU,25,TAETORD,Planned Order of Element within Arm,Num,,,,Timing,Number that gives the planned order of the element within the arm for the element in which the substance use started. Null for substances that started before study participation.,Perm
Interventions,SU,26,EPOCH,Epoch,Char,EPOCH,,,Timing,Epoch associated with the start date/time of the substance use. Null for substances that started before study participation.,Perm
Interventions,SU,27,SUSTDTC,Start Date/Time of Substance Use,Char,,,ISO 8601 datetime or interval,Timing,Start date/time of the substance use represented in ISO 8601 character format.,Perm
Interventions,SU,28,SUENDTC,End Date/Time of Substance Use,Char,,,ISO 8601 datetime or interval,Timing,End date/time of the substance use represented in ISO 8601 character format.,Perm
Interventions,SU,29,SUSTDY,Study Day of Start of Substance Use,Num,,,,Timing,Study day of start of substance use relative to the sponsor-defined RFSTDTC.,Perm
Interventions,SU,30,SUENDY,Study Day of End of Substance Use,Num,,,,Timing,Study day of end of substance use relative to the sponsor-defined RFSTDTC.,Perm
Interventions,SU,31,SUDUR,Duration of Substance Use,Char,,,ISO 8601 duration,Timing,Collected duration of substance use in ISO 8601 format. Used only if collected on the CRF and not derived from start and end date/times.,Perm
Interventions,SU,32,SUSTRF,Start Relative to Reference Period,Char,STENRF,,,Timing,"Describes the start of the substance use relative to the sponsor-defined reference period. The sponsor-defined reference period is a continuous period of time defined by a discrete starting point and a discrete ending point (represented by RFSTDTC and RFENDTC in Demographics). If information such as ""PRIOR"" was collected, this information may be translated into SUSTRF. \n Not all values of the codelist are allowable for this variable. See Section 4.4.7, Use of Relative Timing Variables.",Perm
Interventions,SU,33,SUENRF,End Relative to Reference Period,Char,STENRF,,,Timing,"Describes the end of the substance use with relative to the sponsor-defined reference period. The sponsor-defined reference period is a continuous period of time defined by a discrete starting point and a discrete ending point (represented by RFSTDTC and RFENDTC in Demographics). If information such as ""PRIOR"", ""ONGOING"", or ""CONTINUING"" was collected, this information may be translated into SUENRF. \n Not all values of the codelist are allowable for this variable. See Section 4.4.7, Use of Relative Timing Variables.",Perm
Interventions,SU,34,SUSTRTPT,Start Relative to Reference Time Point,Char,STENRF,,,Timing,"Identifies the start of the substance as being before or after the reference time point defined by variable SUSTTPT. \n Not all values of the codelist are allowable for this variable. See Section 4.4.7 , Use of Relative Timing Variables.",Perm
Interventions,SU,35,SUSTTPT,Start Reference Time Point,Char,,,,Timing,"Description or date/time in ISO 8601 character format of the reference point referred to by SUSTRTPT. Examples: ""2003-12-15"", ""VISIT 1"".",Perm
Interventions,SU,36,SUENRTPT,End Relative to Reference Time Point,Char,STENRF,,,Timing,"Identifies the end of the substance as being before or after the reference time point defined by variable SUENTPT. \n Not all values of the codelist are allowable for this variable. See Section 4.4.7 , Use of Relative Timing Variables.",Perm
Interventions,SU,37,SUENTPT,End Reference Time Point,Char,,,,Timing,"Description or date/time in ISO 8601 character format of the reference point referred to by SUENRTPT. Examples: ""2003-12-25"", ""VISIT 2"".",Perm
Events,AE,1,STUDYID,Study Identifier,Char,,,,Identifier,Unique identifier for a study.,Req
Events,AE,2,DOMAIN,Domain Abbreviation,Char,,AE,,Identifier,Two-character abbreviation for the domain.,Req
Events,AE,3,USUBJID,Unique Subject Identifier,Char,,,,Identifier,Identifier used to uniquely identify a subject across all studies for all applications or submissions involving the product.,Req
Events,AE,4,SPDEVID,Sponsor Device Identifier,Char,,,,Identifier,A sequence of characters used by the sponsor to uniquely identify a specific device. Used to represent a device associated in some way with the adverse event. SPDEVID values are defined in the Device Identifiers (DI) domain.,Perm
Events,AE,5,AESEQ,Sequence Number,Num,,,,Identifier,Sequence number given to ensure uniqueness of subject records within a domain. May be any valid number.,Req
Events,AE,6,AEGRPID,Group ID,Char,,,,Identifier,Used to tie together a block of related records in a single domain for a subject.,Perm
Events,AE,7,AEREFID,Reference ID,Char,,,,Identifier,Internal or external identifier such as a serial number on an SAE reporting form.,Perm
Events,AE,8,AESPID,Sponsor-Defined Identifier,Char,,,,Identifier,Sponsor-defined identifier. It may be preprinted on the CRF as an explicit line identifier or defined in the sponsor's operational database. Example: Line number on an Adverse Events CRF page.,Perm
Events,AE,9,AETERM,Reported Term for the Adverse Event,Char,,,,Topic,Verbatim name of the event.,Req
Events,AE,10,AEMODIFY,Modified Reported Term,Char,,,,Synonym Qualifier,"If AETERM is modified to facilitate coding, then AEMODIFY will contain the modified text.",Perm
Events,AE,11,AELLT,Lowest Level Term,Char,,,MedDRA,Variable Qualifier,Dictionary-derived text description of the lowest level term.,Exp
Events,AE,12,AELLTCD,Lowest Level Term Code,Num,,,MedDRA,Variable Qualifier,Dictionary-derived code for the lowest level term.,Exp
Events,AE,13,AEDECOD,Dictionary-Derived Term,Char,,,MedDRA,Synonym Qualifier,Dictionary-derived text description of AETERM or AEMODIFY. Equivalent to the Preferred Term (PT in MedDRA). The sponsor is expected to provide the dictionary name and version used to map the terms utilizing the external codelist element in the Define-XML document.,Req
Events,AE,14,AEPTCD,Preferred Term Code,Num,,,MedDRA,Variable Qualifier,Dictionary-derived code for the preferred term.,Exp
Events,AE,15,AEHLT,High Level Term,Char,,,MedDRA,Variable Qualifier,Dictionary-derived text description of the high level term for the primary system organ class (SOC).,Exp
Events,AE,16,AEHLTCD,High Level Term Code,Num,,,MedDRA,Variable Qualifier,Dictionary-derived code for the high level term for the primary SOC.,Exp
Events,AE,17,AEHLGT,High Level Group Term,Char,,,MedDRA,Variable Qualifier,Dictionary-derived text description of the high level group term for the primary SOC.,Exp
Events,AE,18,AEHLGTCD,High Level Group Term Code,Num,,,MedDRA,Variable Qualifier,Dictionary-derived code for the high level group term for the primary SOC.,Exp
Events,AE,19,AECAT,Category for Adverse Event,Char,,,,Grouping Qualifier,"Used to define a category of related records. Examples: ""BLEEDING"", ""NEUROPSYCHIATRIC"".",Perm
Events,AE,20,AESCAT,Subcategory for Adverse Event,Char,,,,Grouping Qualifier,"A further categorization of adverse event. Example: ""NEUROLOGIC"".",Perm
Events,AE,21,AEPRESP,Pre-Specified Adverse Event,Char,NY,,,Variable Qualifier,"A value of ""Y"" indicates that this adverse event was prespecified on the CRF. Values are null for spontaneously reported events (i.e., those collected as free-text verbatim terms).",Perm
Events,AE,22,AEBODSYS,Body System or Organ Class,Char,,,,Record Qualifier,"Dictionary derived. Body system or organ class used by the sponsor from the coding dictionary (e.g., MedDRA). When using a multi-axial dictionary such as MedDRA, this should contain the SOC used for the sponsor's analyses and summary tables, which may not necessarily be the primary SOC.",Exp
Events,AE,23,AEBDSYCD,Body System or Organ Class Code,Num,,,MedDRA,Variable Qualifier,"Dictionary derived. Code for the body system or organ class used by the sponsor. When using a multi-axial dictionary such as MedDRA, this should contain the SOC used for the sponsor's analyses and summary tables, which may not necessarily be the primary SOC.",Exp
Events,AE,24,AESOC,Primary System Organ Class,Char,,,MedDRA,Variable Qualifier,Dictionary-derived text description of the primary SOC. Will be the same as AEBODSYS if the primary SOC was used for analysis.,Exp
Events,AE,25,AESOCCD,Primary System Organ Class Code,Num,,,MedDRA,Variable Qualifier,Dictionary-derived code for the primary SOC. Will be the same as AEBDSYCD if the primary SOC was used for analysis.,Exp
Events,AE,26,AELOC,Location of Event,Char,LOC,,,Record Qualifier,"Describes anatomical location relevant for the event (e.g., ""ARM"" for skin rash).",Perm
Events,AE,27,AESEV,Severity/Intensity,Char,AESEV,,,Record Qualifier,"The severity or intensity of the event. Examples: ""MILD"", ""MODERATE"", ""SEVERE"".",Perm
Events,AE,28,AESER,Serious Event,Char,NY,,,Record Qualifier,"Is this a serious event? Valid values are ""Y"" and ""N"".",Exp
Events,AE,29,AEACN,Action Taken with Study Treatment,Char,ACN,,,Record Qualifier,"Describes changes to the study treatment as a result of the event. AEACN is specifically for the relationship to study treatment. AEACNOTH is for actions unrelated to dose adjustments of study treatment. Examples of AEACN values include ICH E2B values: ""DRUG WITHDRAWN"", ""DOSE REDUCED"", ""DOSE INCREASED"", ""DOSE NOT CHANGED"", ""UNKNOWN"" and ""NOT APPLICABLE"".",Exp
Events,AE,30,AEACNOTH,Other Action Taken,Char,,,,Record Qualifier,"Describes other actions taken as a result of the event that are unrelated to dose adjustments of study treatment. Usually reported as free text. Example: ""TREATMENT UNBLINDED. PRIMARY CARE PHYSICIAN NOTIFIED"".",Perm
Events,AE,31,AEACNDEV,Action Taken with Device,Char,DEACNDEV,,,Record Qualifier,An action taken with a device as the result of the event. The device may or may not be a device under study.,Perm
Events,AE,32,AEREL,Causality,Char,,,,Record Qualifier,"Records the investigator's opinion as to the causality of the event to the treatment. ICH does not establish any required or recommended terms for non-device relatedness. ICH E2A and E2B examples include (up-cased here for alignment to SDTM conventions) terms such as ""NOT RELATED"", ""UNLIKELY RELATED"", ""POSSIBLY RELATED"", ""RELATED"", but these example terms do not establish any conventions or expectations. Controlled terminology may be defined in the future. Check with regulatory authority for population of this variable.",Exp
Events,AE,33,AERLDEV,Relationship of Event to Device,Char,,,,Record Qualifier,"A judgment as to the likelihood that the device caused the adverse event. The relationship is to a device identified in the data (i.e., has an SPDEVID). The device may be ancillary or under study. \n Terminology: \n * In the EU, follow the European Commission Guidelines on Medical Devices, Clinical Investigations: SAE Reporting (MEDDEV 2.7/3) (e.g., Not Related, Unlikely, Possible, Probable, Causal Relationship), with device-specific definitions. \n * No required Controlled Terminology in US.",Perm
Events,AE,34,AERELNST,Relationship to Non-Study Treatment,Char,,,,Record Qualifier,"Records the investigator's opinion as to whether the event may have been due to a treatment other than study drug. May be reported as free text. Example: ""MORE LIKELY RELATED TO ASPIRIN USE"".",Perm
Events,AE,35,AEPATT,Pattern of Adverse Event,Char,,,,Record Qualifier,"Used to indicate the pattern of the event over time. Examples: ""INTERMITTENT"", ""CONTINUOUS"", ""SINGLE EVENT"".",Perm
Events,AE,36,AEOUT,Outcome of Adverse Event,Char,OUT,,,Record Qualifier,Description of the outcome of an event.,Perm
Events,AE,37,AESCAN,Involves Cancer,Char,NY,,,Record Qualifier,"Was the serious event associated with the development of cancer? Valid values are ""Y"" and ""N"". This is a legacy seriousness criterion. It is not included in ICH E2A or E2B.",Perm
Events,AE,38,AESCONG,Congenital Anomaly or Birth Defect,Char,NY,,,Record Qualifier,"Was the serious event associated with congenital anomaly or birth defect? Valid values are ""Y"" and ""N"".",Perm
Events,AE,39,AESDISAB,Persist or Signif Disability/Incapacity,Char,NY,,,Record Qualifier,"Did the serious event result in persistent or significant disability/incapacity? Valid values are ""Y"" and ""N"".",Perm
Events,AE,40,AESDTH,Results in Death,Char,NY,,,Record Qualifier,"Did the serious event result in death? Valid values are ""Y"" and ""N"".",Perm
Events,AE,41,AESHOSP,Requires or Prolongs Hospitalization,Char,NY,,,Record Qualifier,"Did the serious event require or prolong hospitalization? Valid values are ""Y"" and ""N"".",Perm
Events,AE,42,AESLIFE,Is Life Threatening,Char,NY,,,Record Qualifier,"Was the serious event life-threatening? Valid values are ""Y"" and ""N"".",Perm
Events,AE,43,AESOD,Occurred with Overdose,Char,NY,,,Record Qualifier,"Did the serious event occur with an overdose? Valid values are ""Y"" and ""N"". This is a legacy seriousness criterion. It is not included in ICH E2A or E2B.",Perm
Events,AE,44,AESMIE,Other Medically Important Serious Event,Char,NY,,,Record Qualifier,"Do additional categories for seriousness apply? Valid values are ""Y"" and ""N"".",Perm
Events,AE,45,AESINTV,Needs Intervention to Prevent Impairment,Char,NY,,,Record Qualifier,"Records whether medical or surgical intervention was necessary to preclude permanent impairment of a body function, or to prevent permanent damage to a body structure, with either situation suspected to be due to the use of a medical product. This variable is used in conjunction with the other ""seriousness"" variables (e.g., fatal, life-threatening). It is part of the US federal government definition of a serious adverse event; see 21 CFR Part 803.3(w)(3).",Perm
Events,AE,46,AEUNANT,Unanticipated Adverse Device Effect,Char,NY,,,Record Qualifier,"Any serious adverse effect on health or safety or any life-threatening problem or death caused by or associated with a device, if that effect, problem, or death was not previously identified in nature, severity, or degree of incidence in the investigational plan or application (including a supplementary plan or application), \n or \n any other unanticipated serious problem associated with a device that relates to the rights, safety, or welfare of subjects. (21 CFR Part 812.3(s)). \n This variable applies only to serious AEs and should hold collected data; if the value is derived, it should be held in ADaM.",Perm
Events,AE,47,AERLPRT,Rel of AE to Non-Dev-Rel Study Activity,Char,,,,Record Qualifier,"The investigator's opinion as to the causality of the event as related to other protocol-required activities, actions, or assessments (e.g., medication changes, tests/assessments, other procedures). The relationship is to a protocol-specified, non-device-related activity where the device is identified in the data (i.e., has an SPDEVID). The device may be ancillary or under study. \n Terminology: \n * In the EU, follow the European Commission Guidelines on Medical Devices, Clinical Investigations: SAE Reporting (MEDDEV 2.7/3) (e.g., Not Related, Unlikely, Possible, Probable, Causal Relationship), with device-specific definitions. \n * No required Controlled Terminology in US.",Perm
Events,AE,48,AERLPRC,Rel of AE to Device-Related Procedure,Char,,,,Record Qualifier,"The investigator's opinion as to the likelihood that the device-related study procedure (e.g., implant/insertion, revision/adjustment, explant/removal) caused the AE. The relationship is to a device-related procedure where the device is identified in the data (i.e., has an SPDEVID). The device may be ancillary or under study. \n Terminology: \n * In the EU, follow the European Commission Guidelines on Medical Devices, Clinical Investigations: SAE Reporting (MEDDEV 2.7/3) (e.g., Not Related, Unlikely, Possible, Probable, Causal Relationship), with device-specific definitions. \n * No required Controlled Terminology in US.",Perm
Events,AE,49,AECONTRT,Concomitant or Additional Trtmnt Given,Char,NY,,,Record Qualifier,"Was another treatment given because of the occurrence of the event? Valid values are ""Y"" and ""N"".",Perm
Events,AE,50,AETOXGR,Standard Toxicity Grade,Char,,,,Record Qualifier,"Toxicity grade according to a standard toxicity scale (e.g., Common Terminology Criteria for Adverse Events, CTCAE). Sponsors should specify the name of the scale and version used in the metadata (see assumption 7d). If value is from a numeric scale, represent only the number (e.g., ""2"", not ""Grade 2"").",Perm
Events,AE,51,TAETORD,Planned Order of Element within Arm,Num,,,,Timing,Number that gives the planned order of the element within the arm.,Perm
Events,AE,52,EPOCH,Epoch,Char,EPOCH,,,Timing,"Epoch associated with the start date/time of the adverse event. Examples: ""SCREENING"", ""TREATMENT"", ""FOLLOW-UP"".",Perm
Events,AE,53,AESTDTC,Start Date/Time of Adverse Event,Char,,,ISO 8601 datetime or interval,Timing,Start date/time of the adverse event represented in ISO 8601 character format.,Exp
Events,AE,54,AEENDTC,End Date/Time of Adverse Event,Char,,,ISO 8601 datetime or interval,Timing,End date/time of the adverse event represented in ISO 8601 character format.,Exp
Events,AE,55,AESTDY,Study Day of Start of Adverse Event,Num,,,,Timing,Study day of start of adverse event relative to the sponsor-defined RFSTDTC.,Perm
Events,AE,56,AEENDY,Study Day of End of Adverse Event,Num,,,,Timing,Study day of end of event relative to the sponsor-defined RFSTDTC.,Perm
Events,AE,57,AEDUR,Duration of Adverse Event,Char,,,ISO 8601 duration,Timing,"Collected duration and unit of an adverse event. Used only if collected on the CRF and not derived from start and end date/times. Example: ""P1DT2H"" (for 1 day, 2 hours).",Perm
Events,AE,58,AEENRF,End Relative to Reference Period,Char,STENRF,,,Timing,"Describes the end of the event relative to the sponsor-defined reference period. The sponsor-defined reference period is a continuous period of time defined by a discrete starting point (RFSTDTC) and a discrete ending point (RFENDTC) of the trial. \n Not all values of the codelist are allowable for this variable. See Section 4.4.7, Use of Relative Timing Variables.",Perm
Events,AE,59,AEENRTPT,End Relative to Reference Time Point,Char,STENRF,,,Timing,"Identifies the end of the event as being before or after the reference time point defined by variable AEENTPT. \n Not all values of the codelist are allowable for this variable. See Section 4.4.7, Use of Relative Timing Variables.",Perm
Events,AE,60,AEENTPT,End Reference Time Point,Char,,,,Timing,"Description of date/time in ISO 8601 character format of the reference point referred to by AEENRTPT. Examples: ""2003-12-25"", ""VISIT 2"".",Perm
Events,BE,1,STUDYID,Study Identifier,Char,,,,Identifier,Unique identifier for a study.,Req
Events,BE,2,DOMAIN,Domain Abbreviation,Char,,BE,,Identifier,Two-character abbreviation for the domain.,Req
Events,BE,3,USUBJID,Unique Subject Identifier,Char,,,,Identifier,Identifier used to uniquely identify a subject across all studies for all applications or submissions involving the product.,Req
Events,BE,4,SPDEVID,Sponsor Device Identifier,Char,,,,Identifier,Sponsor-defined identifier for a device.,Perm
Events,BE,5,BESEQ,Sequence Number,Num,,,,Identifier,Sequence number to ensure uniqueness of records within a dataset for a subject. May be any valid number (including decimals) and does not have to start at 1.,Req
Events,BE,6,BEGRPID,Group ID,Char,,,,Identifier,"Optional group identifier, used to link together a block of related records within a subject in a domain.",Perm
Events,BE,7,BEREFID,Reference ID,Char,,,,Identifier,Internal or external identifier for the specimen affected or created by the event.,Exp
Events,BE,8,BESPID,Sponsor-Defined Identifier,Char,,,,Identifier,Optional sponsor-defined reference number. Example: Line number on a CRF page.,Perm
Events,BE,9,BETERM,Reported Term for the Biospecimen Event,Char,,,,Topic,"Topic variable for an event observation, which is the verbatim or pre-specified name of the event.",Req
Events,BE,10,BEMODIFY,Modified Reported Term,Char,,,,Synonym Qualifier,"If the value for BETERM is modified for coding purposes, then the modified text is placed here.",Perm
Events,BE,11,BEDECOD,Dictionary-Derived Term,Char,BEDECOD,,,Synonym Qualifier,"Dictionary-derived text description of BETERM or BEMODIFY, if applicable.",Perm
Events,BE,12,BECAT,Category for Biospecimen Event,Char,,,,Grouping Qualifier,"Used to define a category of topic-variable values. Example: COLLECTION, PREPARATION, TRANSPORT.",Perm
Events,BE,13,BESCAT,Subcategory for Biospecimen Event,Char,,,,Grouping Qualifier,A further categorization of BECAT values.,Perm
Events,BE,14,BELOC,Anatomical Location of Event,Char,LOC,,,Record Qualifier,"Describes the anatomical location relevant for the event (e.g. BRAIN, LUNG).",Perm
Events,BE,15,BEPARTY,Accountable Party,Char,,,,Record Qualifier,"Party accountable for the transferable object (e.g. specimen) as a result of the activity performed in the associated BETERM variable. The party could be an individual (e.g., subject), an organization (e.g., sponsor), or a location that is a proxy for an individual or organization (e.g., site). It is usually a somewhat general term that is further identified in the BEPRTYID variable.",Perm
Events,BE,16,BEPRTYID,Identification of Accountable Party,Char,,,,Record Qualifier,Identification of the specific party accountable for the transferable object (e.g. Specimen) after the action in BETERM is taken. Used in conjunction with BEPARTY.,Perm
Events,BE,17,VISITNUM,Visit Number,Num,,,,Timing,"Clinical encounter number. Numeric version of VISIT, used for sorting.",Exp
Events,BE,18,VISIT,Visit Name,Char,,,,Timing,Protocol-defined description of clinical encounter.,Perm
Events,BE,19,VISITDY,Planned Study Day of Visit,Num,,,,Timing,Planned study day of VISIT. Should be an integer.,Perm
Events,BE,20,BEDTC,Date/Time of Specimen Collection,Char,,,ISO 8601 datetime or interval,Timing,Date and time of specimen collection.,Exp
Events,BE,21,BESTDTC,Start Date/Time of Biospecimen Event,Char,,,ISO 8601 datetime or interval,Timing,Start date/time of the event.,Exp
Events,BE,22,BEENDTC,End Date/Time of Biospecimen Event,Char,,,ISO 8601 datetime or interval,Timing,End date/time of the event.,Exp
Events,BE,23,BESTDY,Study Day of Start of Biospecimen Event,Num,,,,Timing,Actual study day of start of observation expressed in integer days relative to the sponsor-defined RFSTDTC in Demographics.,Perm
Events,BE,24,BEENDY,Study Day of End of Biospecimen Event,Num,,,,Timing,Actual study day of end of observation expressed in integer days relative to the sponsor-defined RFSTDTC in Demographics.,Perm
Events,BE,25,BEDUR,Duration of Biospecimen Event,Char,,,ISO 8601 duration,Timing,"Collected duration and unit of a biospecimen event. Used only if collected on the CRF and not derived from start and end date/times. Example: P1DT2H (for 1 day, 2 hours).",Perm
Events,CE,1,STUDYID,Study Identifier,Char,,,,Identifier,Unique identifier for a study.,Req
Events,CE,2,DOMAIN,Domain Abbreviation,Char,,CE,,Identifier,Two-character abbreviation for the domain.,Req
Events,CE,3,USUBJID,Unique Subject Identifier,Char,,,,Identifier,Identifier used to uniquely identify a subject across all studies for all applications or submissions involving the product.,Req
Events,CE,4,CESEQ,Sequence Number,Num,,,,Identifier,Sequence number given to ensure uniqueness of subject records within a domain. May be any valid number.,Req
Events,CE,5,CEGRPID,Group ID,Char,,,,Identifier,Used to link together a block of related records for a subject within a domain.,Perm
Events,CE,6,CEREFID,Reference ID,Char,,,,Identifier,"Internal or external identifier (e.g., lab specimen ID, UUID for an ECG waveform or medical image).",Perm
Events,CE,7,CESPID,Sponsor-Defined Identifier,Char,,,,Identifier,Sponsor-defined identifier.,Perm
Events,CE,8,CETERM,Reported Term for the Clinical Event,Char,,,,Topic,Term for the medical condition or event. Most likely preprinted on CRF.,Req
Events,CE,9,CEDECOD,Dictionary-Derived Term,Char,,,,Synonym Qualifier,Controlled terminology for the name of the clinical event. The sponsor is expected to provide the dictionary name and version used to map the terms utilizing the external codelist element in the Define-XML document.,Perm
Events,CE,10,CECAT,Category for the Clinical Event,Char,,,,Grouping Qualifier,Used to define a category of related records.,Perm
Events,CE,11,CESCAT,Subcategory for the Clinical Event,Char,,,,Grouping Qualifier,A further categorization of the condition or event.,Perm
Events,CE,12,CEPRESP,Clinical Event Pre-specified,Char,NY,,,Variable Qualifier,"Used to indicate whether the event in CETERM was prespecified. Value is ""Y"" for prespecified events and null for spontaneously reported events.",Perm
Events,CE,13,CEOCCUR,Clinical Event Occurrence,Char,NY,,,Record Qualifier,"Used when the occurrence of specific events is solicited, to indicate whether or not a clinical event occurred. Values are null for spontaneously reported events.",Perm
Events,CE,14,CESTAT,Completion Status,Char,ND,,,Record Qualifier,The status indicates that a question from a prespecified list was not answered.,Perm
Events,CE,15,CEREASND,Reason Clinical Event Not Collected,Char,,,,Record Qualifier,"Describes the reason clinical event data was not collected. Used in conjunction with CESTAT when value is ""NOT DONE"".",Perm
Events,CE,16,CEBODSYS,Body System or Organ Class,Char,,,,Record Qualifier,"Dictionary-derived. Body system or organ class that is involved in an event or measurement from a standard hierarchy (e.g., MedDRA). When using a multi-axial dictionary such as MedDRA, this should contain the SOC used for the sponsor's analyses and summary tables, which may not necessarily be the primary SOC.",Perm
Events,CE,17,CESEV,Severity/Intensity,Char,SEVRS,,,Record Qualifier,"The severity or intensity of the event. Examples: ""MILD"", ""MODERATE"", ""SEVERE"".",Perm
Events,CE,18,CETOXGR,Standard Toxicity Grade,Char,,,,Record Qualifier,"Toxicity grade according to a standard toxicity scale (e.g., Common Terminology Criteria for Adverse Events (CTCAE) v3.0). Sponsor should specify name of the scale and version used in the metadata. If value is from a numeric scale, represent only the number (e.g., ""2"", not ""Grade 2"").",Perm
Events,CE,19,TAETORD,Planned Order of Element within Arm,Num,,,,Timing,Number that gives the planned order of the element within the arm for the element in which the clinical event started.,Perm
Events,CE,20,EPOCH,Epoch,Char,EPOCH,,,Timing,Epoch associated with the start date/time of the clinical event.,Perm
Events,CE,21,CEDTC,Date/Time of Event Collection,Char,,,ISO 8601 datetime or interval,Timing,Collection date and time for the clinical event observation represented in ISO 8601 character format.,Perm
Events,CE,22,CESTDTC,Start Date/Time of Clinical Event,Char,,,ISO 8601 datetime or interval,Timing,Start date/time of the clinical event represented in ISO 8601 character format.,Perm
Events,CE,23,CEENDTC,End Date/Time of Clinical Event,Char,,,ISO 8601 datetime or interval,Timing,"End date/time of the clinical event, represented in ISO 8601 character format.",Perm
Events,CE,24,CEDY,Study Day of Event Collection,Num,,,,Timing,"Study day of clinical event collection, measured as integer days. Algorithm for calculations must be relative to the sponsor-defined RFSTDTC variable in Demographics. This formula should be consistent across the submission.",Perm
Events,CE,25,CESTDY,Study Day of Start of Event,Num,,,,Timing,Actual study day of start of the clinical event expressed in integer days relative to the sponsor-defined RFSTDTC in Demographics.,Perm
Events,CE,26,CEENDY,Study Day of End of Event,Num,,,,Timing,Actual study day of end of the clinical event expressed in integer days relative to the sponsor-defined RFSTDTC in Demographics.,Perm
Events,CE,27,CESTRF,Start Relative to Reference Period,Char,STENRF,,,Timing,"Describes the start of the clinical event relative to the sponsor-defined reference period. The sponsor-defined reference period is a continuous period of time defined by a discrete starting point and a discrete ending point (represented by RFSTDTC and RFENDTC in Demographics). \n Not all values of the codelist are allowable for this variable. See Section 4.4.7, Use of Relative Timing Variables.",Perm
Events,CE,28,CEENRF,End Relative to Reference Period,Char,STENRF,,,Timing,"Describes the end of the event relative to the sponsor-defined reference period. The sponsor-defined reference period is a continuous period of time defined by a discrete starting point and a discrete ending point (represented by RFSTDTC and RFENDTC in Demographics). \n Not all values of the codelist are allowable for this variable. See Section 4.4.7, Use of Relative Timing Variables.",Perm
Events,CE,29,CESTRTPT,Start Relative to Reference Time Point,Char,STENRF,,,Timing,"Identifies the start of the observation as being before or after the reference time point defined by variable CESTTPT. \n Not all values of the codelist are allowable for this variable. See Section 4.4.7, Use of Relative Timing Variables.",Perm
Events,CE,30,CESTTPT,Start Reference Time Point,Char,,,,Timing,"Description or date/time in ISO 8601 character format of the sponsor-defined reference point referred to by --STRTPT. Examples: ""2003-12-15"", ""VISIT 1"".",Perm
Events,CE,31,CEENRTPT,End Relative to Reference Time Point,Char,STENRF,,,Timing,"Identifies the end of the observation as being before or after the sponsor-defined reference time point defined by variable CEENTPT. \n Not all values of the codelist are allowable for this variable. See Section 4.4.7, Use of Relative Timing Variables.",Perm
Events,CE,32,CEENTPT,End Reference Time Point,Char,,,,Timing,"Description or date/time in ISO 8601 character format of the reference point referred to by CEENRTPT. Examples: ""2003-12-25"", ""VISIT 2"".",Perm
Events,DS,1,STUDYID,Study Identifier,Char,,,,Identifier,Unique identifier for a study.,Req
Events,DS,2,DOMAIN,Domain Abbreviation,Char,,DS,,Identifier,Two-character abbreviation for the domain.,Req
Events,DS,3,USUBJID,Unique Subject Identifier,Char,,,,Identifier,Identifier used to uniquely identify a subject across all studies for all applications or submissions involving the product.,Req
Events,DS,4,DSSEQ,Sequence Number,Num,,,,Identifier,Sequence number given to ensure uniqueness of subject records within a domain. May be any valid number.,Req
Events,DS,5,DSGRPID,Group ID,Char,,,,Identifier,Used to tie together a block of related records in a single domain for a subject.,Perm
Events,DS,6,DSREFID,Reference ID,Char,,,,Identifier,Internal or external identifier.,Perm
Events,DS,7,DSSPID,Sponsor-Defined Identifier,Char,,,,Identifier,Sponsor-defined reference number. May be preprinted on the CRF as an explicit line identifier or defined in the sponsor's operational database. Example: Line number on a Disposition page.,Perm
Events,DS,8,DSTERM,Reported Term for the Disposition Event,Char,,,,Topic,"Verbatim name of the event or protocol milestone. Some terms in DSTERM will match DSDECOD, but others, such as ""Subject moved"", will map to controlled terminology in DSDECOD, such as ""LOST TO FOLLOW-UP"".",Req
Events,DS,9,DSDECOD,Standardized Disposition Term,Char,NCOMPLT,,,Synonym Qualifier,"Controlled terminology for the name of disposition event or protocol milestone. Examples of protocol milestones: ""INFORMED CONSENT OBTAINED"", ""RANDOMIZED"". There are separate codelists used for DSDECOD where the choice depends on the value of DSCAT. Codelist ""NCOMPLT"" is used for disposition events, codelist ""PROTMLST"" is used for protocol milestones, and codelist ""OTHEVENT"" is used for other events.",Req
Events,DS,10,DSCAT,Category for Disposition Event,Char,DSCAT,,,Grouping Qualifier,Used to define a category of related records.,Exp
Events,DS,11,DSSCAT,Subcategory for Disposition Event,Char,DSSCAT,,,Grouping Qualifier,"A further categorization of DSCAT (e.g., ""STUDY PARTICIPATION"", ""STUDY TREATMENT"" when DSCAT = ""DISPOSITION EVENT""). The variable may be subject to controlled terminology for other categories of disposition event records.",Perm
Events,DS,12,EPOCH,Epoch,Char,EPOCH,,,Timing,Epoch associated with the start date/time of the event.,Perm
Events,DS,13,DSDTC,Date/Time of Collection,Char,,,ISO 8601 datetime or interval,Timing,Collection date and time of the disposition observation represented in ISO 8601 character format.,Perm
Events,DS,14,DSSTDTC,Start Date/Time of Disposition Event,Char,,,ISO 8601 datetime or interval,Timing,Start date/time of the disposition event in ISO 8601 character format.,Exp
Events,DS,15,DSDY,Study Day of Collection,Num,,,,Timing,Study day of collection of event relative to the sponsor-defined RFSTDTC.,Perm
Events,DS,16,DSSTDY,Study Day of Start of Disposition Event,Num,,,,Timing,Study day of start of event relative to the sponsor-defined RFSTDTC.,Exp
Events,DV,1,STUDYID,Study Identifier,Char,,,,Identifier,Unique identifier for a study.,Req
Events,DV,2,DOMAIN,Domain Abbreviation,Char,,DV,,Identifier,Two-character abbreviation for the domain.,Req
Events,DV,3,USUBJID,Unique Subject Identifier,Char,,,,Identifier,Identifier used to uniquely identify a subject across all studies for all applications or submissions involving the product.,Req
Events,DV,4,DVSEQ,Sequence Number,Num,,,,Identifier,Sequence number given to ensure uniqueness of subject records within a domain. May be any valid number.,Req
Events,DV,5,DVREFID,Reference ID,Char,,,,Identifier,Internal or external identifier.,Perm
Events,DV,6,DVSPID,Sponsor-Defined Identifier,Char,,,,Identifier,Sponsor-defined reference number. May be preprinted on the CRF as an explicit line identifier or defined in the sponsor's operational database. Example: Line number on a CRF page.,Perm
Events,DV,7,DVTERM,Protocol Deviation Term,Char,,,,Topic,"Verbatim name of the protocol deviation criterion. Example: ""IVRS PROCESS DEVIATION - NO DOSE CALL PERFORMED"". DVTERM values will map to the controlled terminology in DVDECOD (e.g., ""TREATMENT DEVIATION"").",Req
Events,DV,8,DVDECOD,Protocol Deviation Coded Term,Char,,,,Synonym Qualifier,"Controlled terminology for the name of the protocol deviation. Examples: ""SUBJECT NOT WITHDRAWN AS PER PROTOCOL"", ""SELECTION CRITERIA NOT MET"", ""EXCLUDED CONCOMITANT MEDICATION"", ""TREATMENT DEVIATION"".",Perm
Events,DV,9,DVCAT,Category for Protocol Deviation,Char,,,,Grouping Qualifier,Category of the protocol deviation criterion.,Perm
Events,DV,10,DVSCAT,Subcategory for Protocol Deviation,Char,,,,Grouping Qualifier,A further categorization of the protocol deviation.,Perm
Events,DV,11,TAETORD,Planned Order of Element within Arm,Num,,,,Timing,Number that gives the planned order of the element within the arm.,Perm
Events,DV,12,EPOCH,Epoch,Char,EPOCH,,,Timing,"Epoch associated with the start date/time of the deviation. Examples: ""TREATMENT"", ""SCREENING"", ""FOLLOW-UP"".",Perm
Events,DV,13,DVSTDTC,Start Date/Time of Deviation,Char,,,ISO 8601 datetime or interval,Timing,Start date/time of deviation represented in ISO 8601 character format.,Perm
Events,DV,14,DVENDTC,End Date/Time of Deviation,Char,,,ISO 8601 datetime or interval,Timing,End date/time of deviation represented in ISO 8601 character format.,Perm
Events,DV,15,DVSTDY,Study Day of Start of Deviation Event,Num,,,,Timing,Study day of start of event relative to the sponsor-defined RFSTDTC.,Perm
Events,DV,16,DVENDY,Study Day of End of Deviation Event,Num,,,,Timing,Study day of end of event relative to the sponsor-defined RFSTDTC.,Perm
Events,HO,1,STUDYID,Study Identifier,Char,,,,Identifier,Unique identifier for a study.,Req
Events,HO,2,DOMAIN,Domain Abbreviation,Char,,HO,,Identifier,Two-character abbreviation for the domain.,Req
Events,HO,3,USUBJID,Unique Subject Identifier,Char,,,,Identifier,Identifier used to uniquely identify a subject across all studies for all applications or submissions involving the product.,Req
Events,HO,4,HOSEQ,Sequence Number,Num,,,,Identifier,Sequence number given to ensure uniqueness of subject records within a domain. May be any valid number.,Req
Events,HO,5,HOGRPID,Group ID,Char,,,,Identifier,Used to tie together a block of related records in a single domain for a subject.,Perm
Events,HO,6,HOREFID,Reference ID,Char,,,,Identifier,Internal or external healthcare encounter identifier.,Perm
Events,HO,7,HOSPID,Sponsor-Defined Identifier,Char,,,,Identifier,Sponsor-defined identifier. May be preprinted on the CRF as an explicit line identifier or defined in the sponsor's operational database. Example: Line number on a Healthcare Encounters CRF page.,Perm
Events,HO,8,HOTERM,Healthcare Encounter Term,Char,,,,Topic,Verbatim or preprinted CRF term for the healthcare encounter.,Req
Events,HO,9,HODECOD,Dictionary-Derived Term,Char,HODECOD,,,Synonym Qualifier,Dictionary or sponsor-defined derived text description of HOTERM or the modified topic variable (HOMODIFY).,Perm
Events,HO,10,HOCAT,Category for Healthcare Encounter,Char,,,,Grouping Qualifier,Used to define a category of topic-related values.,Perm
Events,HO,11,HOSCAT,Subcategory for Healthcare Encounter,Char,,,,Grouping Qualifier,A further categorization of HOCAT values.,Perm
Events,HO,12,HOPRESP,Pre-Specified Healthcare Encounter,Char,NY,,,Variable Qualifier,"A value of ""Y"" indicates that this healthcare encounter event was prespecified on the CRF. Values are null for spontaneously reported events (i.e., those collected as free-text verbatim terms).",Perm
Events,HO,13,HOOCCUR,Healthcare Encounter Occurrence,Char,NY,,,Record Qualifier,"Used when the occurrence of specific healthcare encounters is solicited, to indicate whether an encounter occurred. Values are null for spontaneously reported events.",Perm
Events,HO,14,HOSTAT,Completion Status,Char,ND,,,Record Qualifier,The status indicates that the prespecified question was not answered.,Perm
Events,HO,15,HOREASND,Reason Healthcare Encounter Not Done,Char,,,,Record Qualifier,"Describes the reason data for a prespecified event were not collected. Used in conjunction with HOSTAT when value is ""NOT DONE"".",Perm
Events,HO,16,TAETORD,Planned Order of Element within Arm,Num,,,,Timing,Number that gives the planned order of the element within the arm.,Perm
Events,HO,17,EPOCH,Epoch,Char,EPOCH,,,Timing,"Epoch associated with the start date/time of the healthcare encounter. Examples: ""SCREENING"", ""TREATMENT"", ""FOLLOW-UP"".",Perm
Events,HO,18,HODTC,Date/Time of Event Collection,Char,,,ISO 8601 datetime or interval,Timing,Collection date and time of the healthcare encounter.,Perm
Events,HO,19,HOSTDTC,Start Date/Time of Healthcare Encounter,Char,,,ISO 8601 datetime or interval,Timing,"Start date/time of the healthcare encounter (e.g., date of admission).",Exp
Events,HO,20,HOENDTC,End Date/Time of Healthcare Encounter,Char,,,ISO 8601 datetime or interval,Timing,"End date/time of the healthcare encounter (e.g., date of discharge).",Perm
Events,HO,21,HODY,Study Day of Event Collection,Num,,,,Timing,Study day of event collection relative to the sponsor-defined RFSTDTC.,Perm
Events,HO,22,HOSTDY,Study Day of Start of Encounter,Num,,,,Timing,Study day of the start of the healthcare encounter relative to the sponsor-defined RFSTDTC.,Perm
Events,HO,23,HOENDY,Study Day of End of Healthcare Encounter,Num,,,,Timing,Study day of the end of the healthcare encounter relative to the sponsor-defined RFSTDTC.,Perm
Events,HO,24,HODUR,Duration of Healthcare Encounter,Char,,,ISO 8601 duration,Timing,"Collected duration of the healthcare encounter. Used only if collected on the CRF and not derived from the start and end date/times. Example: ""P1DT2H"" (for 1 day, 2 hours).",Perm
Events,HO,25,HOSTRTPT,Start Relative to Reference Time Point,Char,STENRF,,,Timing,"Identifies the start of the observation as being before or after the sponsor-defined reference time point defined by variable --STTPT. \n Not all values of the codelist are allowable for this variable. See Section 4.4.7, Use of Relative Timing Variables.",Perm
Events,HO,26,HOSTTPT,Start Reference Time Point,Char,,,,Timing,"Description or date/time in ISO 8601 character format of the sponsor-defined reference point referred to by STRTPT. Examples: ""2003-12-15"", ""VISIT 1"".",Perm
Events,HO,27,HOENRTPT,End Relative to Reference Time Point,Char,STENRF,,,Timing,"Identifies the end of the event as being before or after the reference time point defined by variable HOENTPT. \n Not all values of the codelist are allowable for this variable. See Section 4.4.7, Use of Relative Timing Variables.",Perm
Events,HO,28,HOENTPT,End Reference Time Point,Char,,,,Timing,"Description or date/time in ISO 8601 character format of the reference point referred to by HOENRTPT. Examples: ""2003-12-25"", ""VISIT 2"".",Perm
Events,MH,1,STUDYID,Study Identifier,Char,,,,Identifier,Unique identifier for a study.,Req
Events,MH,2,DOMAIN,Domain Abbreviation,Char,,MH,,Identifier,Two-character abbreviation for the domain.,Req
Events,MH,3,USUBJID,Unique Subject Identifier,Char,,,,Identifier,Identifier used to uniquely identify a subject across all studies for all applications or submissions involving the product.,Req
Events,MH,4,MHSEQ,Sequence Number,Num,,,,Identifier,Sequence number given to ensure uniqueness of subject records within a domain. May be any valid number.,Req
Events,MH,5,MHGRPID,Group ID,Char,,,,Identifier,Used to tie together a block of related records in a single domain for a subject.,Perm
Events,MH,6,MHREFID,Reference ID,Char,,,,Identifier,Internal or external medical history identifier.,Perm
Events,MH,7,MHSPID,Sponsor-Defined Identifier,Char,,,,Identifier,Sponsor-defined reference number. May be preprinted on the CRF as an explicit line identifier or defined in the sponsor's operational database. Example: Line number on a Medical History CRF page.,Perm
Events,MH,8,MHTERM,Reported Term for the Medical History,Char,,,,Topic,Verbatim or preprinted CRF term for the medical condition or event.,Req
Events,MH,9,MHMODIFY,Modified Reported Term,Char,,,,Synonym Qualifier,"If MHTERM is modified to facilitate coding, then MHMODIFY will contain the modified text.",Perm
Events,MH,10,MHDECOD,Dictionary-Derived Term,Char,,,,Synonym Qualifier,Dictionary-derived text description of MHTERM or MHMODIFY. Equivalent to the Preferred Term (PT in MedDRA). The sponsor is expected to provide the dictionary name and version used to map the terms utilizing the external codelist element in the Define-XML document.,Perm
Events,MH,11,MHEVDTYP,Medical History Event Date Type,Char,MHEDTTYP,,,Variable Qualifier,"Specifies the aspect of the medical condition or event by which MHSTDTC and/or the MHENDTC is defined. Examples: ""DIAGNOSIS"", ""SYMPTOMS"", ""RELAPSE"", ""INFECTION"".",Perm
Events,MH,12,MHCAT,Category for Medical History,Char,,,,Grouping Qualifier,"Used to define a category of related records. Examples: ""CARDIAC"", ""GENERAL"".",Perm
Events,MH,13,MHSCAT,Subcategory for Medical History,Char,,,,Grouping Qualifier,A further categorization of the condition or event.,Perm
Events,MH,14,MHPRESP,Medical History Event Pre-Specified,Char,NY,,,Variable Qualifier,"A value of ""Y"" indicates that this medical history event was prespecified on the CRF. Values are null for spontaneously reported events (i.e., those collected as free-text verbatim terms).",Perm
Events,MH,15,MHOCCUR,Medical History Occurrence,Char,NY,,,Record Qualifier,"Used when the occurrence of specific medical history conditions is solicited, to indicate whether (""Y""/""N"") a medical condition (MHTERM) had ever occurred. Values are null for spontaneously reported events.",Perm
Events,MH,16,MHSTAT,Completion Status,Char,ND,,,Record Qualifier,The status indicates that the prespecified question was not asked/answered.,Perm
Events,MH,17,MHREASND,Reason Medical History Not Collected,Char,,,,Record Qualifier,"Describes the reason why data for a prespecified condition was not collected. Used in conjunction with MHSTAT when value is ""NOT DONE"".",Perm
Events,MH,18,MHBODSYS,Body System or Organ Class,Char,,,,Record Qualifier,"Dictionary-derived. Body system or organ class that is involved in an event or measurement from a standard hierarchy (e.g., MedDRA). When using a multi-axial dictionary such as MedDRA, this should contain the SOC used for the sponsor's analyses and summary tables which may not necessarily be the primary SOC.",Perm
Events,MH,19,TAETORD,Planned Order of Element within Arm,Num,,,,Timing,Number that gives the planned order of the element within the arm for the element in which the assessment was made.,Perm
Events,MH,20,EPOCH,Epoch,Char,EPOCH,,,Timing,Epoch associated with the start date/time of the medical history event.,Perm
Events,MH,21,MHDTC,Date/Time of History Collection,Char,,,ISO 8601 datetime or interval,Timing,Collection date and time of the medical history observation represented in ISO 8601 character format.,Perm
Events,MH,22,MHSTDTC,Start Date/Time of Medical History Event,Char,,,ISO 8601 datetime or interval,Timing,Start date/time of the medical history event represented in ISO 8601 character format.,Perm
Events,MH,23,MHENDTC,End Date/Time of Medical History Event,Char,,,ISO 8601 datetime or interval,Timing,End date/time of the medical history event.,Perm
Events,MH,24,MHDY,Study Day of History Collection,Num,,,,Timing,"Study day of medical history collection, measured as integer day. Algorithm for calculations must be relative to the sponsor-defined RFSTDTC variable in Demographics. This formula should be consistent across the submission.",Perm
Events,MH,25,MHENRF,End Relative to Reference Period,Char,STENRF,,,Timing,"Describes the end of the event relative to the sponsor-defined reference period. The sponsor-defined reference period is a continuous period of time defined by a discrete starting point and a discrete ending point (represented by RFSTDTC and RFENDTC in Demographics). \n Not all values of the codelist are allowable for this variable. See Section 4.4.7, Use of Relative Timing Variables.",Perm
Events,MH,26,MHENRTPT,End Relative to Reference Time Point,Char,STENRF,,,Timing,"Identifies the end of the event as being before or after the reference time point defined by variable MHENTPT. \n Not all values of the codelist are allowable for this variable. See Section 4.4.7, Use of Relative Timing Variables.",Perm
Events,MH,27,MHENTPT,End Reference Time Point,Char,,,,Timing,"Description or date/time in ISO 8601 character format of the reference point referred to by MHENRTPT. Examples: ""2003-12-25"", ""VISIT 2"".",Perm
Findings,BS,1,STUDYID,Study Identifier,Char,,,,Identifier,Unique identifier for a study.,Req
Findings,BS,2,DOMAIN,Domain Abbreviation,Char,,BS,,Identifier,Two-character abbreviation for the domain.,Req
Findings,BS,3,USUBJID,Unique Subject Identifier,Char,,,,Identifier,Identifier used to uniquely identify a subject across all studies for all applications or submissions involving the product.,Req
Findings,BS,4,SPDEVID,Sponsor Device Identifier,Char,,,,Identifier,Sponsor-defined identifier for a device.,Perm
Findings,BS,5,BSSEQ,Sequence Number,Num,,,,Identifier,Sequence number given to ensure uniqueness within a dataset for a subject. May be any valid number (including decimals) and does not have to start at 1.,Req
Findings,BS,6,BSGRPID,Group ID,Char,,,,Identifier,"Optional group identifier, used to link together a block of related records within a subject in a domain.",Perm
Findings,BS,7,BSREFID,Reference ID,Char,,,,Identifier,Internal or external identifier such as lab specimen ID.,Exp
Findings,BS,8,BSSPID,Sponsor-Defined Identifier,Char,,,,Identifier,Sponsor-defined identifier.,Perm
Findings,BS,9,BSTESTCD,Biospecimen Test Short Name,Char,BSTESTCD,,,Topic,"Short character value for BSTEST used as a column name when converting a dataset from a vertical format to a horizontal format. The short value can be up to 8 characters. Examples: VOLUME, RIN.",Req
Findings,BS,10,BSTEST,Biospecimen Test Name,Char,BSTEST,,,Synonym Qualifier,"Long name for BSTESTCD. Examples: Volume, RNA Integrity Number.",Req
Findings,BS,11,BSCAT,Category for Biospecimen Test,Char,,,,Grouping Qualifier,"Used to define a category of topic-variable values. Example: MEASUREMENT, QUALITY.",Exp
Findings,BS,12,BSSCAT,Subcategory for Biospecimen Test,Char,,,,Grouping Qualifier,Used to define a further categorization of BSCAT values.,Perm
Findings,BS,13,BSORRES,Result or Finding in Original Units,Char,,,,Result Qualifier,Result of the measurement or finding as originally received or collected.,Exp
Findings,BS,14,BSORRESU,Original Units,Char,UNIT,,,Variable Qualifier,"Unit for BSORRES. Examples: mg, mL.",Exp
Findings,BS,15,BSSTRESC,Character Result/Finding in Std Format,Char,,,,Result Qualifier,"Contains the result value for all findings, copied or derived from BSORRES in a standard format or standard units. BSSTRESC should store all results or findings in character format; if results are numeric, they should also be stored in numeric format in BSSTRESN.",Exp
Findings,BS,16,BSSTRESN,Numeric Result/Finding in Standard Units,Num,,,,Result Qualifier,Used for continuous or numeric results or findings in standard format; copied in numeric format from BSSTRESC. BSSTRESN should store all numeric test results or findings.,Exp
Findings,BS,17,BSSTRESU,Standard Units,Char,UNIT,,,Variable Qualifier,Standardized unit used for BSSTRESC and BSSTRESN.,Exp
Findings,BS,18,BSSTAT,Completion Status,Char,ND,,,Record Qualifier,"Used to indicate that a test was not done, or was attempted but did not generate a result. Should be null or have a value of NOT DONE.",Perm
Findings,BS,19,BSREASND,Reason Test Not Done,Char,,,,Record Qualifier,Reason not done. Used in conjunction with BSSTAT when value is NOT DONE.,Perm
Findings,BS,20,BSNAM,Vendor Name,Char,,,,Record Qualifier,"Name or identifier of the vendor (e.g., laboratory) that provided the test results.",Perm
Findings,BS,21,BSSPEC,Specimen Type,Char,SPECTYPE,,,Record Qualifier,"Defines the type of specimen used for a measurement. Examples: SERUM, PLASMA, URINE, SOFT TISSUE.",Perm
Findings,BS,22,BSANTREG,Anatomical Region of Specimen,Char,,,,Variable Qualifier,"Defines the specific anatomical or biological region of a tissue, organ specimen or the region from which the specimen is obtained, as defined in the protocol, such as a section or part of what is described in the BSSPEC variable. Examples: CORTEX, MEDULLA, MUCOSA.",Perm
Findings,BS,23,BSSPCCND,Specimen Condition,Char,SPECCOND,,,Record Qualifier,"Defines the condition of the specimen. Examples: HEMOLYZED, ICTERIC, LIPEMIC.",Perm
Findings,BS,24,BSMETHOD,Method of Test or Examination,Char,METHOD,,,Record Qualifier,"Method of the test or examination. Examples: SPECTROPHOTOMETRY, ELECTROPHORESIS.",Perm
Findings,BS,25,BSBLFL,Baseline Flag,Char,NY,,,Record Qualifier,Indicator used to identify a baseline value.,Perm
Findings,BS,26,VISITNUM,Visit Number,Num,,,,Timing,"Clinical encounter number. Numeric version of VISIT, used for sorting.",Exp
Findings,BS,27,VISIT,Visit Name,Char,,,,Timing,Protocol-defined description of clinical encounter.,Perm
Findings,BS,28,VISITDY,Planned Study Day of Visit,Num,,,,Timing,Planned study day of VISIT. Should be an integer.,Perm
Findings,BS,29,BSDTC,Date/Time of Specimen Collection,Char,,,ISO 8601 datetime or interval,Timing,Date and time of specimen collection.,Exp
Findings,BS,30,BSDY,Study Day of Specimen Collection,Num,,,,Timing,Study day of specimen collection relative to the sponsor-defined RFSTDTC.,Perm
Findings,BS,31,BSTPT,Planned Time Point Name,Char,,,,Timing,"Text description of time when a measurement or observation should be taken as defined in the protocol. This may be represented as an elapsed time relative to a fixed reference point, such as time of last dose. See BSTPTNUM and BSTPTREF.",Perm
Findings,BS,32,BSTPTNUM,Planned Time Point Number,Num,,,,Timing,Numerical version of BSTPT used in sorting.,Perm
Findings,BS,33,BSELTM,Planned Elapsed Time from Time Point Ref,Char,,,ISO 8601 duration,Timing,"Elapsed time relative to a planned fixed reference (BSTPTREF). This variable is useful where there are repetitive measures. Not a clock time or a date time variable, but an interval, represented as ISO duration.",Perm
Findings,BS,34,BSTPTREF,Time Point Reference,Char,,,,Timing,"Name of the fixed reference point referred to by BSELTM, BSTPTNUM, and BSTPT. Examples: PREVIOUS DOSE, PREVIOUS MEAL.",Perm
Findings,BS,35,BSRFTDTC,Date/Time of Reference Time Point,Char,,,ISO 8601 datetime or interval,Timing,Date/time for a fixed reference time point defined by BSTPTREF.,Perm
Findings,CP,1,STUDYID,Study Identifier,Char,,,,Identifier,Unique identifier for a study.,Req
Findings,CP,2,DOMAIN,Domain Abbreviation,Char,,CP,,Identifier,Two-character abbreviation for the domain.,Req
Findings,CP,3,USUBJID,Unique Subject Identifier,Char,,,,Identifier,Identifier used to uniquely identify a subject across all studies for all applications or submissions involving the product.,Req
Findings,CP,4,CPSEQ,Sequence Number,Num,,,,Identifier,Sequence number to ensure uniqueness of subject records within a domain. May be any valid number.,Req
Findings,CP,5,CPGRPID,Group ID,Char,,,,Identifier,Used to tie together a block of related records in a single domain for a subject.,Perm
Findings,CP,6,CPREFID,Reference ID,Char,,,,Identifier,Internal or external specimen identifier.,Perm
Findings,CP,7,CPSPID,Sponsor-Defined Identifier,Char,,,,Identifier,Sponsor-defined reference number. May be preprinted on the CRF as an explicit line identifier or defined in the sponsor's operational database. Example: Line number on the lab page.,Perm
Findings,CP,8,CPLNKID,Link ID,Char,,,,Identifier,Identifier used to link related records across domains. This may be a one-to-one or a one-to-many relationship.,Perm
Findings,CP,9,CPLNKGRP,Link Group ID,Char,,,,Identifier,Identifier used to link related records across domains. This will usually be a many-to-one relationship.,Perm
Findings,CP,10,CPTESTCD,Test or Examination Short Name,Char,CPTESTCD,,,Topic,"Short name of the measurement, test, or examination described in CPTEST. It can be used as a column name when converting a dataset from a vertical to a horizontal format. The value in CPTESTCD cannot be longer than 8 characters, nor can it start with a number (e.g., ""1TEST"" is not valid). CPTESTCD cannot contain characters other than letters, numbers, or underscores. Examples: ""MONO"", ""MNS"".",Req
Findings,CP,11,CPTEST,"Name of Measurement, Test or Examination",Char,CPTEST,,,Synonym Qualifier,"Long name for CPTESTCD. For cell phenotyping, the name (often abbreviated) of the cell population, as it is generally accepted by the scientific community, is populated (rather than a colloquial designation based on a primary marker, e.g., TLym Help rather than CD4). When the test is for a sublineage which can only be identified by specifying additional markers (i.e., has not been given a name) or which is further restricted to a subpopulation based on a particular cell state (e.g., activated, proliferating, apoptotic), the Sublineage Marker String (CPSBMRKS), Cell State (CPCELSTA), and Cell State Marker String (CPCSMRKS) variables are additionally populated and the value in CPTEST is suffixed with ""Sub"" to denote that it is a subset of the population identified in CPTEST (e.g., Monocytes Sub). \n The value in CPTEST cannot be longer than 40 characters.",Req
Findings,CP,12,CPSBMRKS,Sublineage Marker String,Char,,,,Variable Qualifier,"Used to further subset the cell population identified in CPTEST based on the use of additional marker(s) that define a sublineage. The value in CPSBMRKS is used in combination with values in CPTEST and CPCELSTA to fully describe the cell population being measured. As such, it is an essential component of the full test name. \n For example, three unnamed sublineages of monocytes have been identified as: CCR2+CD16-, CCR2-CD16+, and CCR2+CD16+. Whereas the entire monocyte cell population can be defined as CD14+ cells, the additional CCR2 and CD16 markers are used to differentiate one sublineage from another. As none of these sublineages have been given names, they are only known by the CCR2 and CD16 marker combinations. By associating the CPTEST value of ""Monocytes Sub"" with, for example, a value of ""CCR2+CD16-"" in CPSBMRKS, the full test is defined to be the CCR2+CD16- monocyte subpopulation.",Perm
Findings,CP,13,CPCELSTA,Cell State,Char,CELSTATE,,,Variable Qualifier,"A textual description of a subset of the cell population identified in CPTEST based on a particular functional and/or biological state (e.g., ""ACTIVATED"", ""PROLIFERATING"", ""SENESCENT""). When populated, the values in CPCELSTA and CPSMRKS, in combination with the values in CPTEST and CPSBMRKS, fully describe the cell population being measured.",Perm
Findings,CP,14,CPCSMRKS,Cell State Marker String,Char,,,,Variable Qualifier,"Identifies the marker(s) or indicator(s) used to define the cell state (i.e., the value in CPCELSTA). \n For example, when Ki67 expression is used to determine that a cell population is in a proliferating state (i.e., CPCELSTA value=""PROLIFERATING""), the value ""Ki67+"" in CPCSMRKS indicates that positive expression of Ki67 was used to define the population as proliferating. Similarly, a value of ""Ki67-"" in CPCSMRKS would indicate that lack of expression of Ki67 defined the ""NON-PROLIFERATING"" cell state in CPCELSTA. The CPCSMRKS value is useful for quickly determining which marker(s) were used to classify (i.e., operationally define) a cell population based on a functional/biological state.",Perm
Findings,CP,15,CPTSTCND,Test Condition,Char,TESTCOND,,,Variable Qualifier,"Identifies any planned condition imposed by the assay system on the specimen at the time the test is performed. --TSTCND is generally used to distinguish between two or more records where the same assay is performed under varying (as opposed to fixed) conditions, usually for the purpose of making a comparison. For example, when the same assay (identified in --TEST) is performed under stimulated and non-stimulated conditions, the --TSTCND variable is used distinguish between the records.",Perm
Findings,CP,16,CPCNDAGT,Test Condition Agent,Char,,,,Record Qualifier,"The textual description of the agent, if applicable, used to impose the condition identified in CPTSTCND. For example, records might be produced for the same assay run under stimulating (CPTSTCND value = ""STIMULATED"") conditions produced by different stimulating agents (e.g., phorbol myristate acetate, concanavalin A, PHA-P, TNF-alpha, Ionomycin, candida antigen).",Perm
Findings,CP,17,CPBDAGNT,Binding Agent,Char,,,,Record Qualifier,"The textual description of the agent that is binding to the entity in the CPTEST variable. The CPBDAGNT variable is used to indicate that there is a binding relationship between the entities in the CPTEST and CPBDAGNT variables, regardless of direction. \n The binding agent may be, but is not limited to, a test article; a portion of a test article; a substance related to a test article; an endogenous molecule; an allergen; an infectious agent; or a reagent (e.g., primary antibody) that confers the binding specificity for the measurement defined in CPTEST when it is needed to uniquely identify the test.",Perm
Findings,CP,18,CPABCLID,Antibody Clone Identifier,Char,,,,Record Qualifier,"Identifies the antibody clone (e.g., supplier-provided catalog name) used to confer specificity for the binding agent specified in CPBDAGNT.",Perm
Findings,CP,19,CPMRKSTR,Marker String,Char,,,,Record Qualifier,"The text string identifying the full set of markers/indicators used by the laboratory to operationally define the complete test based on the combination of CPTEST, CPSBMRKS, and CPCELSTA. Because laboratories often use different markers/indicators to identify a cell population, the relationship between a named cell population in CPTEST (as combined with CPSBMRKS and CPCELSTA values) and the set of markers used to identify that population is many-to-one. To ensure nuances important for accurately interpreting the data are accounted for and which arise from the use of different sets of markers, it is necessary to operationally define the test in terms of the complete set of markers/indicators used to perform that test.",Exp
Findings,CP,20,CPGATE,Gate,Char,,,,Record Qualifier,"The sponsor-defined name assigned to a gate. Gates are electronic (i.e., a device setting or software-defined) boundaries set by a user to virtually parse a specimen into discrete populations based on a set of defined characteristics (e.g., presence, absence, or intensity of expression of various markers; physical size; internal complexity or granularity). Gates are used to constrain data collection or analysis to a specific cell population or region of interest within the specimen.",Perm
Findings,CP,21,CPGATDEF,Gate Definition,Char,,,,Record Qualifier,"The text string identifying the set of parameters and the order in which they are applied to define the gating strategy. In practice, a series of 2-dimensional sub-gates based on different cell characteristics (i.e., markers/indicators/physical properties) are most often combined until the cell population of interest is sufficiently resolved (i.e., electronically isolated) from other cell populations contained within the specimen. \n For complex analyses, differences in gating strategies can produce subtle differences in results obtained for a test. To ensure nuances important for accurately interpreting the data are accounted for and which arise from the use of different gating strategies, it is often necessary to qualify the test in terms of the gating strategy. For some purposes, however, and at the discretion of the sponsor, only the ultimate or penultimate gate is identified. When specifying the gating strategy in CPGATDEF, each sub-gate should be listed in the order it was applied and separated from the next sub-gate using the pipe/vertical line (""|"") character.",Perm
Findings,CP,22,CPSPTSTD,Sponsor Test Description,Char,,,,Record Qualifier,"Sponsor's description of a test. The variable is intended to contain highly structured test description metadata used by a sponsor to unambiguously define (label) a test. Such values generally reside in a sponsor/laboratory test metadata repository. CPSPTSTD is not intended for unstructured (spontaneous) free text. \n An example of appropriate usage is when it is necessary to include identifying information for a target cell population on which a test is conducted when the target population is not part of the test name, e.g., tests for quantitative expression of a particular marker on a specific cell population.",Perm
Findings,CP,23,CPCAT,Category,Char,CPCAT,,,Grouping Qualifier,"Used to define a category of topic-variable values across subjects. Examples: ""IMMUNOPHENOTYPING"", ""CELL FUNCTION"", ""TARGET ENGAGEMENT"".",Perm
Findings,CP,24,CPSCAT,Subcategory,Char,,,,Grouping Qualifier,A further categorization of CPCAT.,Perm
Findings,CP,25,CPTSTPNL,Test Panel,Char,,,,Grouping Qualifier,Sponsor-defined textual description used to group tests run together as part of a test panel. Can be used with --GRPID to ensure that relationships between associated tests are accurately identified.,Perm
Findings,CP,26,CPORRES,Result or Finding in Original Units,Char,,,,Result Qualifier,Result of the measurement or finding as originally received or collected.,Exp
Findings,CP,27,CPORRESU,Original Units,Char,UNIT,,,Variable Qualifier,"Original units in which the data were collected. The unit for CPORRES. Examples: ""10^6/L"", ""%"", ""MESF"".",Perm
Findings,CP,28,CPRESSCL,Result Scale,Char,RSLSCLRS,,,Record Qualifier,"Classifies the scale of the original result value with respect to whether the result is quantitative, ordinal, nominal, or narrative.",Perm
Findings,CP,29,CPRESTYP,Result Type,Char,RESTYPRS,,,Record Qualifier,"Classifies the kind of result (i.e., property type) originally reported for the test. Examples: ""NUMBER CONCENTRATION"", ""NUMBER FRACTION"", ""RATIO"".",Perm
Findings,CP,30,CPCOLSRT,Collected Summary Result Type,Char,COLSTYP,,,Record Qualifier,"Used to indicate the type of collected summary result. This includes source summary results collected on a CRF or provided by an external vendor (e.g., central lab). If the summary result is derived using individual source data records, this summary result should be represented in ADaM. If a sponsor has both a collected summary result and a derived summary result, the collected summary result should be represented in SDTM and the derived summary result should be represented in ADaM.",Perm
Findings,CP,31,CPORNRLO,Reference Range Lower Limit in Orig Unit,Char,,,,Variable Qualifier,Lower end of reference range for continuous measurement in original units. Should be populated only for continuous results.,Perm
Findings,CP,32,CPORNRHI,Reference Range Upper Limit in Orig Unit,Char,,,,Variable Qualifier,Upper end of reference range for continuous measurement in original units. Should be populated only for continuous results.,Perm
Findings,CP,33,CPSTRESC,Result or Finding in Standard Format,Char,,,,Result Qualifier,"Contains the result value for all findings, copied or derived from CPORRES in a standard format or in standard units. CPSTRESC should store all results or findings in character format; if results are numeric, they should also be stored in numeric format in CPSTRESN.",Exp
Findings,CP,34,CPSTRESN,Numeric Result/Finding in Standard Units,Num,,,,Result Qualifier,Used for continuous or numeric results or findings in standard format; copied in numeric format from CPSTRESC. CPSTRESN should store all numeric test results or findings.,Perm
Findings,CP,35,CPSTRESU,Standard Units,Char,UNIT,,,Variable Qualifier,Standardized unit used for CPSTRESC or CPSTRESN.,Perm
Findings,CP,36,CPSTNRLO,Reference Range Lower Limit-Std Units,Num,,,,Variable Qualifier,Lower end of reference range for continuous measurements for CPSTRESC/CPSTRESN in standardized units. Should be populated only for continuous results.,Perm
Findings,CP,37,CPSTNRHI,Reference Range Upper Limit-Std Units,Num,,,,Variable Qualifier,Upper end of reference range for continuous measurements in standardized units. Should be populated only for continuous results.,Perm
Findings,CP,38,CPNRIND,Reference Range Indicator,Char,NRIND,,,Variable Qualifier,"Indicates where the value falls with respect to reference range defined by CPORNRLO and CPORNRHI, CPSTNRLO and CPSTNRHI, or by CPSTNRC. Examples: ""NORMAL"", ""ABNORMAL"", ""HIGH"", ""LOW"". Sponsors should specify in the study metadata (Comments column in the Define-XML document) whether CPNRIND refers to the original or standard reference ranges and results. CPNRIND should not be used to indicate clinical significance.",Perm
Findings,CP,39,CPSTAT,Completion Status,Char,ND,,,Record Qualifier,Used to indicate that the test was not performed or that it was attempted but did not generate a result. Should be null if a result exists in CPORRES.,Perm
Findings,CP,40,CPREASND,Reason Not Done,Char,,,,Record Qualifier,"Describes why a test was not performed, e.g., ""BROKEN EQUIPMENT"", ""SUBJECT REFUSED"", ""SPECIMEN LOST"". Used in conjunction with CPSTAT when value is ""NOT DONE"".",Perm
Findings,CP,41,CPNAM,Vendor Name,Char,,,,Record Qualifier,The name or identifier of the laboratory that performed the test.,Perm
Findings,CP,42,CPLOINC,LOINC Code,Char,,,LOINC,Synonym Qualifier,Code for the test from the LOINC code system. The sponsor is expected to provide the dictionary name and version used to map the terms utilizing the Define-XML external codelist attributes.,Perm
Findings,CP,43,CPSPEC,Specimen Type,Char,SPECTYPE,,,Record Qualifier,"Defines the type of specimen used for a measurement. Examples: ""BLOOD"", ""BONE MARROW"".",Perm
Findings,CP,44,CPSPCCND,Specimen Condition,Char,SPECCOND,,,Record Qualifier,"The physical state or quality of a specimen for an assessment. Example: ""CLOTTED"".",Perm
Findings,CP,45,CPMETHOD,Method of Test or Examination,Char,METHOD,,,Record Qualifier,"Method of the test or examination. Example: ""FLOW CYTOMETRY"".",Perm
Findings,CP,46,CPANMETH,Analysis Method,Char,,,,Record Qualifier,Analysis method applied to obtain a summarized result. Analysis method describes the method of secondary processing applied to a complex observation result.,Perm
Findings,CP,47,CPLOBXFL,Last Observation Before Exposure Flag,Char,NY,,,Record Qualifier,"Operationally-derived indicator used to identify the last non-missing value prior to RFXSTDTC. The value should be ""Y"" or null.",Perm
Findings,CP,48,CPBLFL,Baseline Flag,Char,NY,,,Record Qualifier,"Indicator used to identify a baseline value. The value should be ""Y"" or null.",Perm
Findings,CP,49,CPDRVFL,Derived Flag,Char,NY,,,Record Qualifier,"Used to indicate a derived record. The value should be ""Y"" or null. Records that represent the average of other records, or do not come from the CRF, or are not as originally received or collected are examples of records that might be derived for the submission datasets. If CPDRVFL = ""Y"", then CPORRES may be null, with CPSTRESC and (if numeric) CPSTRESN having the derived value.",Perm
Findings,CP,50,CPCLSIG,"Clinically Significant, Collected",Char,NY,,,Record Qualifier,Used to indicate whether a collected observation is clinically significant based on judgement.,Perm
Findings,CP,51,VISITNUM,Visit Number,Num,,,,Timing,"Clinical encounter number. Numeric version of VISIT, used for sorting.",Perm
Findings,CP,52,VISIT,Visit Name,Char,,,,Timing,Protocol-defined description of clinical encounter. May be used in addition to VISITNUM and/or VISITDY.,Perm
Findings,CP,53,VISITDY,Planned Study Day of Visit,Num,,,,Timing,Planned study day of the visit based upon RFSTDTC in Demographics. Should be an integer.,Perm
Findings,CP,54,TAETORD,Planned Order of Element within Arm,Num,,,,Timing,Number that gives the planned order of the element within the arm.,Perm
Findings,CP,55,EPOCH,Epoch,Char,EPOCH,,,Timing,"Epoch associated with the start date/time of the observation, or the date/time of collection if start date/time is not collected.",Perm
Findings,CP,56,CPDTC,Date/Time of Collection,Char,,,ISO 8601 datetime or interval,Timing,Date/time of specimen collection represented in ISO 8601 character format.,Exp
Findings,CP,57,CPDY,Study Day of Visit/Collection/Exam,Num,,,,Timing,"Study day of specimen collection, measured in integer days. Algorithm for calculations must be relative to the sponsor-defined RFSTDTC value in Demographics.",Perm
Findings,CP,58,CPTPT,Planned Time Point Name,Char,,,,Timing,"Text description of time when a specimen is to be taken, as defined in the protocol. This may be represented as an elapsed time relative to a fixed reference point (i.e., to the value in CPTPTREF). Example: ""1 hour post"".",Perm
Findings,CP,59,CPTPTNUM,Planned Time Point Number,Num,,,,Timing,"Numerical version of CPTPT to aid in sorting. When CPTPT is represented as an elapsed time relative to a fixed reference point (i.e., to the value in CPTPTREF), the values in CPTPTNUM should be assigned in ascending order relative to the value in CPTPTREF. For example, records for time points where CPTPT = ""5 minutes post"", 1 hour post"", and ""4 hours post"" could be represented in CPTPTNUM as ""1"", ""2"", and ""3"", which maintains the order between CPTPT and CPTPTNUM with respect to the fixed time point reference in CPTPTREF.",Perm
Findings,CP,60,CPELTM,Planned Elapsed Time from Time Point Ref,Char,,,ISO 8601 duration,Timing,"Planned elapsed time relative to the planned fixed reference value in CPTPTREF, represented in ISO 8601 duration format. Examples: ""-PT15M"" to represent 15 minutes prior to the reference time point indicated by CPTPTREF, ""T8H"" to represent 8 hours after the reference time point represented by CPTPTREF.",Perm
Findings,CP,61,CPTPTREF,Time Point Reference,Char,,,,Timing,"Descriptive name of the fixed reference point referred to by CPTPT, CPTPTNUM, and CPELTM. Examples: ""PREVIOUS DOSE"", ""PREVIOUS MEAL"".",Perm
Findings,CP,62,CPRFTDTC,Date/Time of Reference Time Point,Char,,,ISO 8601 datetime or interval,Timing,Date/time for a fixed reference time point defined by CPTPTREF.,Perm
Findings,CV,1,STUDYID,Study Identifier,Char,,,,Identifier,Unique identifier for a study.,Req
Findings,CV,2,DOMAIN,Domain Abbreviation,Char,,CV,,Identifier,Two-character abbreviation for the domain.,Req
Findings,CV,3,USUBJID,Unique Subject Identifier,Char,,,,Identifier,Identifier used to uniquely identify a subject across all studies for all applications or submissions involving the product.,Req
Findings,CV,4,CVSEQ,Sequence Number,Num,,,,Identifier,Sequence number to ensure uniqueness of records within a dataset for a subject. May be any valid number (including decimals) and does not have to start at 1.,Req
Findings,CV,5,CVGRPID,Group ID,Char,,,,Identifier,"Optional group identifier, used to link together a block of related records within a subject in a domain.",Perm
Findings,CV,6,CVREFID,Reference ID,Char,,,,Identifier,Optional internal or external identifier.,Perm
Findings,CV,7,CVSPID,Sponsor-Defined Identifier,Char,,,,Identifier,Sponsor-defined identifier. Example: a preprinted line identifier on a CRF.,Perm
Findings,CV,8,CVLNKID,Link ID,Char,,,,Identifier,Identifier used to link related records across domains. This may be a one-to-one or a one-to-many relationship.,Perm
Findings,CV,9,CVLNKGRP,Link Group,Char,,,,Identifier,Identifier used to link related records across domains. This will usually be a many-to-one relationship.,Perm
Findings,CV,10,CVTESTCD,Short Name of Cardiovascular Test,Char,CVTESTCD,,,Topic,"Short name of the measurement, test, or examination described in CVTEST. It can be used as a column name when converting a dataset from a vertical to a horizontal format. The value in CVTESTCD cannot be longer than 8 characters, nor can it start with a number (e.g., ""1TEST"" would not be valid). CVTESTCD cannot contain characters other than letters, numbers, or underscores.",Req
Findings,CV,11,CVTEST,Name of Cardiovascular Test,Char,CVTEST,,,Synonym Qualifier,Long name For CVTESTCD. The value in CVTEST cannot be longer than 40 characters.,Req
Findings,CV,12,CVCAT,Category for Cardiovascular Test,Char,,,,Grouping Qualifier,Used to define a category of topic-variable values.,Perm
Findings,CV,13,CVSCAT,Subcategory for Cardiovascular Test,Char,,,,Grouping Qualifier,Used to define a further categorization of CVCAT values.,Perm
Findings,CV,14,CVPOS,Position of Subject During Observation,Char,POSITION,,,Record Qualifier,"Position of the subject during a measurement or examination. Examples: ""SUPINE"", ""STANDING"", ""SITTING"".",Perm
Findings,CV,15,CVORRES,Result or Finding in Original Units,Char,,,,Result Qualifier,Result of the measurement or finding as originally received or collected.,Exp
Findings,CV,16,CVORRESU,Original Units,Char,UNIT,,,Variable Qualifier,Original units in which the data were collected. Unit for CVORRES.,Perm
Findings,CV,17,CVSTRESC,Character Result/Finding in Std Format,Char,,,,Result Qualifier,"Contains the result value for all findings, copied or derived, from CVORRES in a standard format or in standard units. CVSTRESC should store all results or findings in character format; if results are numeric, they should also be stored in numeric format in CVSTRESN. For example, if various tests have results ""NONE"", ""NEG"", and ""NEGATIVE"" in CVORRES and these results effectively have the same meaning, they could be represented in standard format in CVSTRESC as ""NEGATIVE"".",Exp
Findings,CV,18,CVSTRESN,Numeric Result/Finding in Standard Units,Num,,,,Result Qualifier,Used for continuous or numeric results or findings in standard format; copied in numeric format from CVSTRESC. CVSTRESN should store all numeric test results or findings.,Perm
Findings,CV,19,CVSTRESU,Standard Units,Char,UNIT,,,Variable Qualifier,Standardized units used for CVSTRESC and CVSTRESN.,Perm
Findings,CV,20,CVSTAT,Completion Status,Char,ND,,,Record Qualifier,"Used to indicate that a question was not asked or a test was not done, or a test was attempted but did not generate a result. Should be null or have a value of ""NOT DONE"".",Perm
Findings,CV,21,CVREASND,Reason Not Done,Char,,,,Record Qualifier,"Describes why a measurement or test was not performed (e.g., ""BROKEN EQUIPMENT"", ""SUBJECT REFUSED""). Used in conjunction with CVSTAT when value is ""NOT DONE"".",Perm
Findings,CV,22,CVLOC,Location Used for the Measurement,Char,LOC,,,Record Qualifier,"Anatomical location of the subject relevant to the collection of the measurement. Examples: ""HEART"", ""LEFT VENTRICLE"".",Perm
Findings,CV,23,CVLAT,Laterality,Char,LAT,,,Variable Qualifier,"Qualifier for anatomical location or specimen further detailing laterality. Examples: ""RIGHT"", ""LEFT"", ""BILATERAL"", ""UNILATERAL"".",Perm
Findings,CV,24,CVDIR,Directionality,Char,DIR,,,Variable Qualifier,"Qualifier for anatomical location or specimen further detailing directionality. Examples: ""ANTERIOR"", ""LOWER"", ""PROXIMAL"".",Perm
Findings,CV,25,CVMETHOD,Method of Test or Examination,Char,METHOD,,,Record Qualifier,Method used to create the result.,Perm
Findings,CV,26,CVLOBXFL,Last Observation Before Exposure Flag,Char,NY,,,Record Qualifier,"Operationally-derived indicator used to identify the last non-missing value prior to RFXSTDTC. The value should be ""Y"" or null.",Exp
Findings,CV,27,CVBLFL,Baseline Flag,Char,NY,,,Record Qualifier,"Indicator used to identify a baseline value. Should be ""Y"" or null. Note that CVBLFL is retained for backward compatibility. The authoritative baseline for statistical analysis is in an ADaM dataset.",Perm
Findings,CV,28,CVDRVFL,Derived Flag,Char,NY,,,Record Qualifier,"Used to indicate a derived record (i.e., a record that represents the average of other records, such as a computed baseline). Should be ""Y"" or null.",Perm
Findings,CV,29,CVEVAL,Evaluator,Char,EVAL,,,Record Qualifier,"Role of the person who provided the evaluation. Used only for results that are subjective (e.g., assigned by a person or a group). Examples: ""ADJUDICATION COMMITTEE"", "" INDEPENDENT ASSESSOR"", ""RADIOLOGIST"".",Perm
Findings,CV,30,CVEVALID,Evaluator Identifier,Char,MEDEVAL,,,Variable Qualifier,"Used to distinguish multiple evaluators with the same role recorded in CVEVAL. Examples: ""RADIOLOGIST1"" or ""RADIOLOGIST2"".",Perm
Findings,CV,31,VISITNUM,Visit Number,Num,,,,Timing,"Clinical encounter number. Numeric version of VISIT, used for sorting.",Exp
Findings,CV,32,VISIT,Visit Name,Char,,,,Timing,Protocol-defined description of clinical encounter. May be used in addition to VISITNUM and/or VISITDY.,Perm
Findings,CV,33,VISITDY,Planned Study Day of Visit,Num,,,,Timing,Planned study day of VISIT. Should be an integer.,Perm
Findings,CV,34,TAETORD,Planned Order of Element within Arm,Num,,,,Timing,Number that gives the planned order of the element within the arm for the element in which the assessment was made.,Perm
Findings,CV,35,EPOCH,Epoch,Char,EPOCH,,,Timing,Epoch associated with the date/time at which the assessment was made.,Perm
Findings,CV,36,CVDTC,Date/Time of Test,Char,,,ISO 8601 datetime or interval,Timing,Collection date and time of an observation.,Exp
Findings,CV,37,CVDY,Study Day of Visit/Collection/Exam,Num,,,,Timing,Actual study day of visit/collection/exam expressed in integer days relative to the sponsor-defined RFSTDTC in Demographics.,Perm
Findings,CV,38,CVTPT,Planned Time Point Name,Char,,,,Timing,"Text description of time when a measurement or observation should be taken, as defined in the protocol. This may be represented as an elapsed time relative to a fixed reference point, such as time of last dose. See CVTPTNUM and CVTPTREF.",Perm
Findings,CV,39,CVTPTNUM,Planned Time Point Number,Num,,,,Timing,Numeric version of planned time point used in sorting.,Perm
Findings,CV,40,CVELTM,Planned Elapsed Time from Time Point Ref,Char,,,ISO 8601 duration,Timing,"Planned elapsed time relative to a planned fixed reference (CVTPTREF). Examples: ""PREVIOUS DOSE"", ""PREVIOUS MEAL"". This variable is useful where there are repetitive measures. Not a clock time or a date/time variable, but an interval, represented as ISO duration.",Perm
Findings,CV,41,CVTPTREF,Time Point Reference,Char,,,,Timing,"Description of the fixed reference point referred to by CVELTM, CVTPTNUM, and CVTPT. Examples: ""PREVIOUS DOSE"", ""PREVIOUS MEAL"".",Perm
Findings,CV,42,CVRFTDTC,Date/Time of Reference Time Point,Char,,,ISO 8601 datetime or interval,Timing,Date/time for a fixed reference time point defined by CVTPTREF.,Perm
Findings,DA,1,STUDYID,Study Identifier,Char,,,,Identifier,Unique identifier for a study within the submission.,Req
Findings,DA,2,DOMAIN,Domain Abbreviation,Char,,DA,,Identifier,Two-character abbreviation for the domain.,Req
Findings,DA,3,USUBJID,Unique Subject Identifier,Char,,,,Identifier,Identifier used to uniquely identify a subject across all studies for all applications or submissions involving the product.,Req
Findings,DA,4,DASEQ,Sequence Number,Num,,,,Identifier,Sequence number given to ensure uniqueness of subject records within a domain. May be any valid number.,Req
Findings,DA,5,DAGRPID,Group ID,Char,,,,Identifier,Used to tie together a block of related records in a single domain for a subject.,Perm
Findings,DA,6,DAREFID,Reference ID,Char,,,,Identifier,"Optional internal or external identifier such as a code from the product packaging (e.g., bottle label, package label, kit label).",Perm
Findings,DA,7,DASPID,Sponsor-Defined Identifier,Char,,,,Identifier,"Sponsor-defined reference number. May be preprinted on the CRF as an explicit line identifier or defined in the sponsor's operational database. Examples: Line number on the Product Accountability CRF page, a code from the product packaging (e.g., bottle label, package label, kit label).",Perm
Findings,DA,8,DALNKID,Link ID,Char,,,,Identifier,Identifier used to link related records across domains. This may be a one-to-one or a one-to-many relationship.,Perm
Findings,DA,9,DALNKGRP,Link Group ID,Char,,,,Identifier,Identifier used to link related records across domains. This will usually be a many-to-one relationship.,Perm
Findings,DA,10,DATESTCD,Short Name of Accountability Assessment,Char,DATESTCD,,,Topic,"Short character value for DATEST used as a column name when converting a dataset from a vertical format to a horizontal format. The short value can be up to 8 characters and cannot begin with a number or contain characters other than letters, numbers, or underscores. Examples: ""DISPAMT"", ""RETAMT"".",Req
Findings,DA,11,DATEST,Name of Accountability Assessment,Char,DATEST,,,Synonym Qualifier,"Verbatim name corresponding to the topic variable of the test or examination used to obtain the product accountability assessment. The value in DATEST cannot be longer than 40 characters. Examples: ""Dispensed Amount"", ""Returned Amount"".",Req
Findings,DA,12,DACAT,Category,Char,,,,Grouping Qualifier,"Used to define a category of topic-variable values. Examples: ""STUDY MEDICATION"", ""RESCUE MEDICATION"".",Perm
Findings,DA,13,DASCAT,Subcategory,Char,,,,Grouping Qualifier,Used to define a further categorization level for a group of related records.,Perm
Findings,DA,14,DAORRES,Result or Finding in Original Units,Char,,,,Result Qualifier,Result of the product accountability assessment as originally received or collected.,Exp
Findings,DA,15,DAORRESU,Original Units,Char,UNIT,,,Variable Qualifier,Unit for DAORRES.,Perm
Findings,DA,16,DASTRESC,Result or Finding in Standard Format,Char,,,,Result Qualifier,"Contains the result value for all product accountability assessments copied or derived from DAORRES, in a standard format or in standard units. DASTRESC should store all results or findings in character format; if results are numeric, they should also be stored in numeric format in DASTRESN.",Exp
Findings,DA,17,DASTRESN,Numeric Result/Finding in Standard Units,Num,,,,Result Qualifier,Used for continuous or numeric results or findings in standard format; copied in numeric format from DASTRESC. DASTRESN should store all numeric test results or findings.,Perm
Findings,DA,18,DASTRESU,Standard Units,Char,UNIT,,,Variable Qualifier,Standardized units used for DASTRESC and DASTRESN.,Perm
Findings,DA,19,DASTAT,Completion Status,Char,ND,,,Record Qualifier,"Used to indicate that a product accountability assessment was not done. Should be null or have a value of ""NOT DONE"".",Perm
Findings,DA,20,DAREASND,Reason Not Done,Char,,,,Record Qualifier,"Reason not done. Used in conjunction with DASTAT when value is ""NOT DONE"".",Perm
Findings,DA,21,VISITNUM,Visit Number,Num,,,,Timing,"Clinical encounter number. Numeric version of VISIT, used for sorting.",Exp
Findings,DA,22,VISIT,Visit Name,Char,,,,Timing,Protocol-defined description of a clinical encounter. May be used in addition to VISITNUM and/or VISITDY.,Perm
Findings,DA,23,VISITDY,Planned Study Day of Visit,Num,,,,Timing,"Planned study day of the visit, based upon RFSTDTC in Demographics.",Perm
Findings,DA,24,TAETORD,Planned Order of Element within Arm,Num,,,,Timing,"Number that gives the planned order of the element within the arm (see Section 7.2.1, Trial Arms).",Perm
Findings,DA,25,EPOCH,Epoch,Char,EPOCH,,,Timing,"Epoch associated with the start date/time of the observation, or the date/time of collection if start date/time is not collected.",Perm
Findings,DA,26,DADTC,Date/Time of Collection,Char,,,ISO 8601 datetime or interval,Timing,Date and time of the product accountability assessment represented in ISO 8601 character format.,Exp
Findings,DA,27,DADY,Study Day of Visit/Collection/Exam,Num,,,,Timing,"Study day of product accountability assessment, measured in integer days. Algorithm for calculations must be relative to the sponsor-defined RFSTDTC in Demographics.",Perm
Findings,DD,1,STUDYID,Study Identifier,Char,,,,Identifier,Unique identifier for a study.,Req
Findings,DD,2,DOMAIN,Domain Abbreviation,Char,,DD,,Identifier,Two-character abbreviation for the domain.,Req
Findings,DD,3,USUBJID,Unique Subject Identifier,Char,,,,Identifier,Identifier used to uniquely identify a subject across all studies for all applications or submissions involving the product.,Req
Findings,DD,4,DDSEQ,Sequence Number,Num,,,,Identifier,Sequence number given to ensure uniqueness of subject records within a domain. May be any valid number.,Req
Findings,DD,5,DDTESTCD,Death Detail Assessment Short Name,Char,DTHDXCD,,,Topic,"Short name of the measurement, test, or examination described in DDTEST. It can be used as a column name when converting a dataset from a vertical to a horizontal format. The value in DDTESTCD cannot be longer than 8 characters, nor can it start with a number (e.g., ""1TEST"" is not valid). DDTESTCD cannot contain characters other than letters, numbers, or underscores. Examples: ""PRCDTH"", ""SECDTH"".",Req
Findings,DD,6,DDTEST,Death Detail Assessment Name,Char,DTHDX,,,Synonym Qualifier,"Long name for DDTESTCD. The value in DDTEST cannot be longer than 40 characters. Examples: ""Primary Cause of Death"", ""Secondary Cause of Death"".",Req
Findings,DD,7,DDORRES,Result or Finding as Collected,Char,,,,Result Qualifier,"Result of the test defined in DDTEST, as originally received or collected.",Exp
Findings,DD,8,DDSTRESC,Character Result/Finding in Std Format,Char,,,,Result Qualifier,Contains the result or finding copied or derived from DDORRES in a standard format.,Exp
Findings,DD,9,DDRESCAT,Result Category,Char,,,,Variable Qualifier,"Used to categorize the result of a finding. Examples: ""TREATMENT RELATED"", ""NONTREATMENT RELATED"", ""UNDETERMINED"", ""ACCIDENTAL"".",Perm
Findings,DD,10,DDEVAL,Evaluator,Char,EVAL,,,Record Qualifier,Role of the person who provided the evaluation.,Perm
Findings,DD,11,DDDTC,Date/Time of Collection,Char,,,ISO 8601 datetime or interval,Timing,Date/time of collection of the diagnosis or other death assessment data in ISO 8601 format. This is not necessarily the date of death.,Exp
Findings,DD,12,DDDY,Study Day of Collection,Num,,,,Timing,"Study day of the collection, in integer days. The algorithm for calculations must be relative to the sponsor-defined RFSTDTC variable in the Demographics (DM) domain.",Perm
Findings,EG,1,STUDYID,Study Identifier,Char,,,,Identifier,Unique identifier for a study.,Req
Findings,EG,2,DOMAIN,Domain Abbreviation,Char,,EG,,Identifier,Two-character abbreviation for the domain.,Req
Findings,EG,3,USUBJID,Unique Subject Identifier,Char,,,,Identifier,Identifier used to uniquely identify a subject across all studies for all applications or submissions involving the product.,Req
Findings,EG,4,SPDEVID,Sponsor Device Identifier,Char,,,,Identifier,Sponsor-defined identifier for a device.,Perm
Findings,EG,5,EGSEQ,Sequence Number,Num,,,,Identifier,Sequence number given to ensure uniqueness of subject records within a domain. May be any valid number.,Req
Findings,EG,6,EGGRPID,Group ID,Char,,,,Identifier,Used to tie together a block of related records in a single domain for a subject.,Perm
Findings,EG,7,EGREFID,ECG Reference ID,Char,,,,Identifier,"Internal or external ECG identifier. Example: ""334PT89"".",Perm
Findings,EG,8,EGSPID,Sponsor-Defined Identifier,Char,,,,Identifier,Sponsor-defined reference number. May be printed on the CRF as an explicit line identifier or defined in the sponsor's operational database. Example: Line number on the ECG page.,Perm
Findings,EG,9,EGBEATNO,ECG Beat Number,Num,,,,Identifier,A sequence number that identifies the beat within an ECG.,Perm
Findings,EG,10,EGTESTCD,ECG Test or Examination Short Name,Char,EGTESTCD,,,Topic,"Short name of the measurement, test, or examination described in EGTEST. It can be used as a column name when converting a dataset from a vertical to a horizontal format. The value in EGTESTCD cannot be longer than 8 characters, nor can it start with a number (e.g., ""1TEST"" is not valid). EGTESTCD cannot contain characters other than letters, numbers, or underscores. Examples: ""PRAG"", ""QRSAG"". \n Test codes are in 2 separate codelists, 1 for tests based on regular 10-second ECGs (EGTESTCD) and one 1 tests based on Holter monitoring (HETESTCD).",Req
Findings,EG,11,EGTEST,ECG Test or Examination Name,Char,EGTEST,,,Synonym Qualifier,"Verbatim name of the test or examination used to obtain the measurement or finding. The value in EGTEST cannot be longer than 40 characters. Examples: ""PR Interval, Aggregate"", ""QRS Duration, Aggregate"". \n Test names are in 2 separate codelists, 1 for tests based on regular 10-second ECGs (EGTEST) and 1 for tests based on Holter monitoring (HETEST).",Req
Findings,EG,12,EGCAT,Category for ECG,Char,,,,Grouping Qualifier,"Used to categorize ECG observations across subjects. Examples: ""MEASUREMENT"", ""FINDING"", ""INTERVAL"".",Perm
Findings,EG,13,EGSCAT,Subcategory for ECG,Char,,,,Grouping Qualifier,A further categorization of the ECG.,Perm
Findings,EG,14,EGPOS,ECG Position of Subject,Char,POSITION,,,Record Qualifier,"Position of the subject during a measurement or examination. Examples: ""SUPINE"", ""STANDING"", ""SITTING"".",Perm
Findings,EG,15,EGORRES,Result or Finding in Original Units,Char,,,,Result Qualifier,"Result of the ECG measurement or finding as originally received or collected. Examples of expected values are ""62"" or ""0.151"" when the result is an interval or measurement, or ""ATRIAL FIBRILLATION"" or ""QT PROLONGATION"" when the result is a finding.",Exp
Findings,EG,16,EGORRESU,Original Units,Char,UNIT,,,Variable Qualifier,"Original units in which the data were collected. The unit for EGORRES. Examples: ""sec"", ""msec"".",Perm
Findings,EG,17,EGSTRESC,Character Result/Finding in Std Format,Char,EGSTRESC,,,Result Qualifier,"Contains the result value for all findings copied or derived from EGORRES, in a standard format or standard units. EGSTRESC should store all results or findings in character format; if results are numeric, they should also be stored in numeric format in EGSTRESN. For example, if a test has results of 62 beats/min, then EGORRES = ""62"", EGORRESU = ""beats/min"", EGSTRESC = ""62"", EGSTRESN = 62, and EGSTRESU = ""beats/min"" . For other examples, see Original and Standardized Results. Additional examples of result data: ""SINUS BRADYCARDIA"", ""ATRIAL FLUTTER"", ""ATRIAL FIBRILLATION"". \n Test results are in 3 separate codelists: EGSTRESC for abnormal test results based on regular 10-second ECGs; HESTRESC for abnormal test results based on Holter monitoring, and NORMABNM for generic test results and/or responses to EGTEST = ""Interpretation"".",Exp
Findings,EG,18,EGSTRESN,Numeric Result/Finding in Standard Units,Num,,,,Result Qualifier,Used for continuous or numeric results or findings in standard format; copied in numeric format from EGSTRESC. EGSTRESN should store all numeric test results or findings.,Perm
Findings,EG,19,EGSTRESU,Standard Units,Char,UNIT,,,Variable Qualifier,Standardized units used for EGSTRESC and EGSTRESN.,Perm
Findings,EG,20,EGSTAT,Completion Status,Char,ND,,,Record Qualifier,"Used to indicate an ECG was not done, or an ECG measurement was not taken. Should be null if a result exists in EGORRES.",Perm
Findings,EG,21,EGREASND,Reason ECG Not Done,Char,,,,Record Qualifier,"Describes why a measurement or test was not performed. Examples: ""BROKEN EQUIPMENT"", ""SUBJECT REFUSED"". Used in conjunction with EGSTAT when value is ""NOT DONE"".",Perm
Findings,EG,22,EGXFN,ECG External File Path,Char,,,,Record Qualifier,File name and path for the external ECG waveform file.,Perm
Findings,EG,23,EGNAM,Vendor Name,Char,,,,Record Qualifier,Name or identifier of the laboratory or vendor providing the test results.,Perm
Findings,EG,24,EGMETHOD,Method of Test or Examination,Char,EGMETHOD,,,Record Qualifier,"Method of the ECG test. Example: ""12-LEAD STANDARD"".",Perm
Findings,EG,25,EGLEAD,Lead Location Used for Measurement,Char,EGLEAD,,,Record Qualifier,"The lead used for the measurement. Examples: ""LEAD 1"", ""LEAD 2"", ""LEAD rV2"", ""LEAD V1"".",Perm
Findings,EG,26,EGLOBXFL,Last Observation Before Exposure Flag,Char,NY,,,Record Qualifier,"Operationally derived indicator used to identify the last non-missing value prior to RFXSTDTC. The value should be ""Y"" or null.",Exp
Findings,EG,27,EGBLFL,Baseline Flag,Char,NY,,,Record Qualifier,"Indicator used to identify a baseline value. Should be ""Y"" or null. Note that EGBLFL is retained for backward compatibility. The authoritative baseline for statistical analysis is in an ADaM dataset.",Perm
Findings,EG,28,EGDRVFL,Derived Flag,Char,NY,,,Record Qualifier,"Used to indicate a derived record. The value should be ""Y"" or null. Records that represent the average of other records, or that do not come from the CRF, or are not as originally collected or received are examples of records that would be derived for the submission datasets. If EGDRVFL=""Y"", then EGORRES could be null, with EGSTRESC and EGSTRESN (if the result is numeric) having the derived value.",Perm
Findings,EG,29,EGEVAL,Evaluator,Char,EVAL,,,Record Qualifier,"Role of the person who provided the evaluation. Used only for results that are subjective (e.g., assigned by a person or a group). Should be null for records that contain collected or derived data. Examples: ""INVESTIGATOR"", ""ADJUDICATION COMMITTEE"", ""VENDOR"".",Perm
Findings,EG,30,EGEVALID,Evaluator Identifier,Char,MEDEVAL,,,Variable Qualifier,"Used to distinguish multiple evaluators with the same role recorded in EGEVAL. Examples: ""RADIOLOGIST 1"" or ""RADIOLOGIST 2"".",Perm
Findings,EG,31,EGCLSIG,"Clinically Significant, Collected",Char,NY,,,Record Qualifier,Used to indicate whether a collected observation is clinically significant based on judgment.,Perm
Findings,EG,32,EGREPNUM,Repetition Number,Num,,,,Record Qualifier,"The incidence number of a test that is repeated within a given timeframe for the same test. The level of granularity can vary (e.g., within a time point, within a visit). Examples: multiple measurements of blood pressure, multiple analyses of a sample.",Perm
Findings,EG,33,VISITNUM,Visit Number,Num,,,,Timing,"Clinical encounter number. Numeric version of VISIT, used for sorting.",Exp
Findings,EG,34,VISIT,Visit Name,Char,,,,Timing,Protocol-defined description of clinical encounter. May be used in addition to VISITNUM and/or VISITDY.,Perm
Findings,EG,35,VISITDY,Planned Study Day of Visit,Num,,,,Timing,Planned study day of the visit based upon RFSTDTC in Demographics.,Perm
Findings,EG,36,TAETORD,Planned Order of Element within Arm,Num,,,,Timing,Number that gives the planned order of the element within the arm for the element in which the assessment was made.,Perm
Findings,EG,37,EPOCH,Epoch,Char,EPOCH,,,Timing,Epoch associated with the date/time at which the assessment was made.,Perm
Findings,EG,38,EGDTC,Date/Time of ECG,Char,,,ISO 8601 datetime or interval,Timing,Date/Time of ECG.,Exp
Findings,EG,39,EGDY,Study Day of ECG,Num,,,,Timing,"Study day of the ECG, measured as integer days. Algorithm for calculations must be relative to the sponsor-defined RFSTDTC variable in Demographics.",Perm
Findings,EG,40,EGTPT,Planned Time Point Name,Char,,,,Timing,"Text description of time when measurement should be taken. This may be represented as an elapsed time relative to a fixed reference point, such as time of last dose. See EGTPTNUM and EGTPTREF. Examples: ""Start"", ""5 min post"".",Perm
Findings,EG,41,EGTPTNUM,Planned Time Point Number,Num,,,,Timing,Numerical version of EGTPT to aid in sorting.,Perm
Findings,EG,42,EGELTM,Planned Elapsed Time from Time Point Ref,Char,,,ISO 8601 duration,Timing,"Planned elapsed time (in ISO 8601) relative to a fixed time point reference (EGTPTREF). Not a clock time or a date time variable. Represented as an ISO 8601 duration. Examples: ""-PT15M"" to represent the period of 15 minutes prior to the reference point indicated by EGTPTREF, ""PT8H"" to represent the period of 8 hours after the reference point indicated by EGTPTREF.",Perm
Findings,EG,43,EGTPTREF,Time Point Reference,Char,,,,Timing,"Name of the fixed reference point referred to by EGELTM, EGTPTNUM, and EGTPT. Examples: ""PREVIOUS DOSE"", ""PREVIOUS MEAL"".",Perm
Findings,EG,44,EGRFTDTC,Date/Time of Reference Time Point,Char,,,ISO 8601 datetime or interval,Timing,Date/time for a fixed reference time point defined by EGTPTREF.,Perm
Findings,FT,1,STUDYID,Study Identifier,Char,,,,Identifier,Unique identifier for a study.,Req
Findings,FT,2,DOMAIN,Domain Abbreviation,Char,,FT,,Identifier,Two-character abbreviation for the domain.,Req
Findings,FT,3,USUBJID,Unique Subject Identifier,Char,,,,Identifier,Identifier used to uniquely identify a subject across all studies for all applications or submissions involving the product.,Req
Findings,FT,4,FTSEQ,Sequence Number,Num,,,,Identifier,Sequence number to ensure uniqueness of records within a dataset for a subject. May be any valid number.,Req
Findings,FT,5,FTGRPID,Group ID,Char,,,,Identifier,"Optional group identifier, used to link together a block of related records within a subject in a domain.",Perm
Findings,FT,6,FTREFID,Reference ID,Char,,,,Identifier,Optional internal or external identifier.,Perm
Findings,FT,7,FTSPID,Sponsor-Defined Identifier,Char,,,,Identifier,Sponsor-defined identifier. May be preprinted on the CRF as an explicit line identifier or defined in the sponsor's operational database. Example: Line number on the Test page.,Perm
Findings,FT,8,FTTESTCD,Short Name of Test,Char,,,,Topic,"Short character value for FTTEST, which can be used as a column name when converting a dataset from a vertical format to a horizontal format. The value cannot be longer than 8 characters, nor can it start with a number (e.g., ""1TEST"" is not valid). FTTESTCD cannot contain characters other than letters, numbers, or underscores. \n Controlled terminology for FTTESTCD is published in separate codelists for each instrument. See https://www.cdisc.org/standards/terminology/controlled-terminology for values for FTTESTCD. Examples: ""W250101"", ""W25F0102"".",Req
Findings,FT,9,FTTEST,Name of Test,Char,,,,Synonym Qualifier,"Verbatim name of the question used to obtain the finding. The value in FTTEST cannot be longer than 40 characters. \n Controlled terminology for FTTEST is published in separate codelists for each instrument. See https://www.cdisc.org/standards/terminology/controlled-terminology for values for FTTEST. Examples: ""W2501-25 Foot Walk Time"", ""W25F-More Than Two Attempts"".",Req
Findings,FT,10,FTCAT,Category,Char,FTCAT,,,Grouping Qualifier,Used to specify the functional test in which the functional test question identified by FTTEST and FTTESTCD was included.,Req
Findings,FT,11,FTSCAT,Subcategory,Char,,,,Grouping Qualifier,Used to define a further categorization of FTCAT values.,Perm
Findings,FT,12,FTPOS,Position of Subject During Observation,Char,POSITION,,,Record Qualifier,"Position of the subject during the test. Examples: ""SUPINE"", ""STANDING"", ""SITTING"".",Perm
Findings,FT,13,FTORRES,Result or Finding in Original Units,Char,,,,Result Qualifier,Result of the measurement or finding as originally received or collected.,Exp
Findings,FT,14,FTORRESU,Original Units,Char,UNIT,,,Variable Qualifier,Original units in which the data were collected. Unit for FTORRES.,Perm
Findings,FT,15,FTSTRESC,Result or Finding in Standard Format,Char,,,,Result Qualifier,"Contains the result value for all findings, copied or derived from FTORRES in a standard format or in standard units. FTSTRESC should store all results or findings in character format; if results are numeric, they should also be stored in numeric format in FTSTRESN.",Exp
Findings,FT,16,FTSTRESN,Numeric Result/Finding in Standard Units,Num,,,,Result Qualifier,Used for continuous or numeric results or findings in standard format; copied in numeric format from FTSTRESC. FTSTRESN should store all numeric test results or findings.,Perm
Findings,FT,17,FTSTRESU,Standard Units,Char,UNIT,,,Variable Qualifier,Standardized units used for FTSTRESC and FTSTRESN.,Perm
Findings,FT,18,FTSTAT,Completion Status,Char,ND,,,Record Qualifier,"Used to indicate that a test was not done, or a test was attempted but did not generate a result. Should be null or have a value of ""NOT DONE"".",Perm
Findings,FT,19,FTREASND,Reason Not Done,Char,,,,Record Qualifier,"Describes why a test was not done, or a test was attempted but did not generate a result. Used in conjunction with FTSTAT when value is ""NOT DONE"".",Perm
Findings,FT,20,FTXFN,External File Path,Char,,,,Record Qualifier,File path to an external file.,Perm
Findings,FT,21,FTNAM,Vendor Name,Char,,,,Record Qualifier,Name or identifier of the vendor or laboratory that provided the test results.,Perm
Findings,FT,22,FTMETHOD,Method of Test or Examination,Char,QRSMTHOD,,,Record Qualifier,Method of the test or examination.,Perm
Findings,FT,23,FTLOBXFL,Last Observation Before Exposure Flag,Char,NY,,,Record Qualifier,"Operationally-derived indicator used to identify the last non-missing value prior to RFXSTDTC. The value should be ""Y"" or null.",Exp
Findings,FT,24,FTBLFL,Baseline Flag,Char,NY,,,Record Qualifier,"A baseline defined by the sponsor (could be derived in the same manner as FTLOBXFL or ABLFL, but is not required to be). The value should be ""Y"" or null. Note that FTBLFL is retained for backward compatibility. The authoritative baseline flag for statistical analysis is in an ADaM dataset.",Perm
Findings,FT,25,FTDRVFL,Derived Flag,Char,NY,,,Record Qualifier,"Used to indicate a derived record (e.g., a record that represents the average of other records such as a computed baseline). Should be ""Y"" or null.",Perm
Findings,FT,26,FTREPNUM,Repetition Number,Num,,,,Record Qualifier,"The incidence number of a test that is repeated within a given timeframe for the same test. The level of granularity can vary (e.g., within a time point, within a visit). Examples: multiple measurements of blood pressure, multiple analyses of a sample.",Perm
Findings,FT,27,VISITNUM,Visit Number,Num,,,,Timing,"Clinical encounter number. Numeric version of VISIT, used for sorting.",Exp
Findings,FT,28,VISIT,Visit Name,Char,,,,Timing,Protocol-defined description of a clinical encounter.,Perm
Findings,FT,29,VISITDY,Planned Study Day of Visit,Num,,,,Timing,Planned study day of VISIT based upon RFSTDTC in Demographics. Should be an integer.,Perm
Findings,FT,30,TAETORD,Planned Order of Element within Arm,Num,,,,Timing,Number that gives the planned order of the element within the arm for the element in which the assessment was made.,Perm
Findings,FT,31,EPOCH,Epoch,Char,EPOCH,,,Timing,Epoch associated with the observation date/time of the functional tests finding.,Perm
Findings,FT,32,FTDTC,Date/Time of Test,Char,,,ISO 8601 datetime or interval,Timing,Collection date and time of functional test.,Exp
Findings,FT,33,FTDY,Study Day of Test,Num,,,,Timing,Actual study day of test expressed in integer days relative to the sponsor-defined RFSTDTC in Demographics.,Perm
Findings,FT,34,FTTPT,Planned Time Point Name,Char,,,,Timing,"Text description of time when a measurement or observation should be taken, as defined in the protocol. This may be represented as an elapsed time relative to a fixed reference point, such as time of last dose. See FTTPTNUM and FTTPTREF.",Perm
Findings,FT,35,FTTPTNUM,Planned Time Point Number,Num,,,,Timing,Numeric version of planned time point used in sorting.,Perm
Findings,FT,36,FTELTM,Planned Elapsed Time from Time Point Ref,Char,,,ISO 8601 duration,Timing,"Planned elapsed time relative to a planned fixed reference (FTTPTREF). Not a clock time or a date/time variable, but an interval, represented as ISO duration.",Perm
Findings,FT,37,FTTPTREF,Time Point Reference,Char,,,,Timing,"Description of the fixed reference point referred to by FTELTM, FTTPTNUM, and FTTPT. Examples: ""PREVIOUS DOSE"", ""PREVIOUS MEAL"".",Perm
Findings,FT,38,FTRFTDTC,Date/Time of Reference Time Point,Char,,,ISO 8601 datetime or interval,Timing,Date/time for a fixed reference time point defined by FTTPTREF.,Perm
Findings,GF,1,STUDYID,Study Identifier,Char,,,,Identifier,Unique identifier for a study.,Req
Findings,GF,2,DOMAIN,Domain Abbreviation,Char,,GF,,Identifier,Two-character abbreviation for the domain.,Req
Findings,GF,3,USUBJID,Unique Subject Identifier,Char,,,,Identifier,Identifier used to uniquely identify a subject across all studies for all applications or submissions involving the product.,Req
Findings,GF,4,SPDEVID,Sponsor Device Identifier,Char,,,,Identifier,Sponsor-defined identifier for a device.,Perm
Findings,GF,5,NHOID,Non-Host Organism Identifier,Char,,,,Identifier,"Sponsor-defined identifier for a non-host organism which should only be used when the organism is the subject of the TEST. This variable should be populated with an intuitive name based on the identity of the non-host organism as reported by a lab (e.g., ""A/California/7/2009 (H1N1)""). It is not to be used as a qualifier of the result in the record on which it appears.",Perm
Findings,GF,6,GFSEQ,Sequence Number,Num,,,,Identifier,Sequence number to ensure uniqueness of records within a dataset for a subject. May be any valid number (including decimals) and does not have to start at 1.,Req
Findings,GF,7,GFGRPID,Group ID,Char,,,,Identifier,Used to link together a block of related records within a subject in a domain.,Perm
Findings,GF,8,GFREFID,Reference ID,Char,,,,Identifier,A unique identifier for the assayed genetic specimen.,Exp
Findings,GF,9,GFSPID,Sponsor-Defined Identifier,Char,,,,Identifier,Sponsor-defined identifier.,Perm
Findings,GF,10,GFLNKID,Link ID,Char,,,,Identifier,Identifier used to link related records across domains. This may be a one-to-one or a one-to-many relationship.,Perm
Findings,GF,11,GFLNKGRP,Link Group ID,Char,,,,Identifier,Identifier used to link related records across domains. This will usually be a many-to-one relationship.,Perm
Findings,GF,12,GFTESTCD,Short Name of Genomic Measurement,Char,GFTESTCD,,,Topic,"Short name of the measurement, test, or examination described in GFTEST. It can be used as a column name when converting a dataset from a vertical to a horizontal format. The value in GFTESTCD cannot be longer than 8 characters, nor can it start with a number (e.g., ""1TEST"" is not valid). GFTESTCD cannot contain characters other than letters, numbers, or underscores.",Req
Findings,GF,13,GFTEST,Name of Genomic Measurement,Char,GFTEST,,,Synonym Qualifier,Long name for GFTESTCD. The value in GFTEST cannot be longer than 40 characters.,Req
Findings,GF,14,GFTSTDTL,"Measurement, Test, or Examination Detail",Char,GFTSDTL,,,Variable Qualifier,Description of a reportable qualifying the assessment in GFTESTCD and GFTEST.,Perm
Findings,GF,15,GFCAT,Category for Genomic Finding,Char,,,,Grouping Qualifier,Used to define a category of topic-variable values.,Perm
Findings,GF,16,GFSCAT,Subcategory for Genomic Finding,Char,,,,Grouping Qualifier,Used to define a further categorization of GFCAT values.,Perm
Findings,GF,17,GFORRES,Result or Finding in Original Units,Char,,,,Result Qualifier,Result of the measurement or finding as originally received or collected.,Exp
Findings,GF,18,GFORRESU,Original Units,Char,UNIT,,,Variable Qualifier,Unit for GFORRES.,Perm
Findings,GF,19,GFORREF,Reference Result in Original Units,Char,,,,Variable Qualifier,"Reference value for the result or finding as originally received or collected. GFORREF uses the same units as GFORRES, if applicable.",Perm
Findings,GF,20,GFSTRESC,Result or Finding in Standard Format,Char,,,,Result Qualifier,"Contains the result value for all findings, copied or derived from GFORRES, in a standard format or in standard units. GFSTRESC should store all results or findings in character format; if results are numeric, they should also be stored in numeric format in GFSTRESN.",Exp
Findings,GF,21,GFSTRESN,Numeric Result/Finding in Standard Units,Num,,,,Result Qualifier,Used for continuous or numeric results or findings in standard format; copied in numeric format from GFSTRESC. GFSTRESN should store all numeric test results or findings.,Perm
Findings,GF,22,GFSTRESU,Standard Units,Char,UNIT,,,Variable Qualifier,"Standardized units used for GFSTRESC, GFSTRESN, GFSTREFC, and GFSTREFN.",Perm
Findings,GF,23,GFSTREFC,Reference Result in Standard Format,Char,,,,Variable Qualifier,Reference value for the result or finding copied or derived from GFORREF in a standard format.,Perm
Findings,GF,24,GFSTREFN,Numeric Reference Result in Std Units,Num,,,,Variable Qualifier,"Reference value for continuous or numeric results or findings in standard format or in standard units. GFSTREFN uses the same units as GFSTRESN, if applicable.",Perm
Findings,GF,25,GFRESCAT,Result Category,Char,,,,Variable Qualifier,Used to categorize the result of a finding.,Perm
Findings,GF,26,GFINHERT,Inheritability,Char,INHERTGF,,,Variable Qualifier,Identifies whether the variation can be passed to the next generation.,Perm
Findings,GF,27,GFGENREF,Genome Reference,Char,,,,Variable Qualifier,"An identifier for the genome reference used to generate the reported result. For example, Genome Reference Consortium Human Build 38 patch release 13 may be represented as ""GRCh38.p13"".",Perm
Findings,GF,28,GFCHROM,Chromosome Identifier,Char,,,,Variable Qualifier,"The designation (name or number) of the chromosome or contig on which the variant or other feature appears (e.g., ""17""; ""X"").",Perm
Findings,GF,29,GFSYM,Genomic Symbol,Char,,,,Variable Qualifier,A published symbol for the portion of the genome serving as a locus for the experiment/test.,Perm
Findings,GF,30,GFSYMTYP,Genomic Symbol Type,Char,SYMTYPGF,,,Variable Qualifier,A description of the type of genomic entity that is represented by the published symbol in GFSYM.,Perm
Findings,GF,31,GFGENLOC,Genetic Location,Char,,,,Variable Qualifier,Specifies the location within a sequence for the observed value in GFORRES.,Perm
Findings,GF,32,GFGENSR,Genetic Sub-Region,Char,,,,Variable Qualifier,"The portion of the locus in which the variation was found. Examples: ""Exon 15"", ""Kinase domain"".",Perm
Findings,GF,33,GFSEQID,Sequence Identifier \n,Char,,,,Variable Qualifier,"A unique identifier for the sequence used as the reference to identify the genetic variation in the result. Examples: ""NM_001234"", ""ENSG00000182533"", ""ENST00000343849.2"".",Perm
Findings,GF,34,GFPVRID,Published Variant Identifier,Char,,,,Variable Qualifier,"A unique identifier for the variation that has been publicly characterized in an external database. Examples: ""rs2231142"", ""COSM41596"".",Perm
Findings,GF,35,GFCOPYID,Copy Identifier,Char,,,,Variable Qualifier,An arbitrary identifier used to differentiate between copies of a genetic target of interest present on homologous chromosomes.,Perm
Findings,GF,36,GFSTAT,Completion Status,Char,ND,,,Record Qualifier,"Used to indicate that a question was not asked or a test was not done, or a test was attempted but did not generate a result. Should be null or have a value of ""NOT DONE"".",Perm
Findings,GF,37,GFREASND,Reason Test Not Done,Char,,,,Record Qualifier,"Reason not done. Used in conjunction with GFSTAT when value is ""NOT DONE"".",Perm
Findings,GF,38,GFXFN,External File Path,Char,,,,Record Qualifier,The filename and/or path to external data not stored in the same format and possibly not the same location as the other data for a study.,Perm
Findings,GF,39,GFNAM,Laboratory/Vendor Name,Char,,,,Record Qualifier,"Name or identifier of the vendor that provided the test result. When more than 1 vendor is involved in the generation of the result, additional vendors should be represented as supplemental qualifiers.",Perm
Findings,GF,40,GFSPEC,Specimen Material Type,Char,GENSMP,,,Record Qualifier,Identifies the type of genetic material used for the measurement.,Perm
Findings,GF,41,GFMETHOD,Method of Test or Examination,Char,METHOD,,,Record Qualifier,The test method by which the examination is performed by the wet lab in order to yield the result reported in the dataset.,Exp
Findings,GF,42,GFRUNID,Run ID,Char,,,,Record Qualifier,A unique identifier for a particular run of a test performed by the wet lab on a particular batch of samples. This identifier can be used to distinguish between records for the same test performed at different times.,Perm
Findings,GF,43,GFANMETH,Analysis Method,Char,GFANMET,,,Record Qualifier,The method of secondary processing performed by the dry lab to yield the result reported in the dataset.,Perm
Findings,GF,44,GFBLFL,Baseline Flag,Char,NY,,,Record Qualifier,"Indicator used to identify a baseline value. Should be ""Y"" or null.",Perm
Findings,GF,45,GFDRVFL,Derived Flag,Char,NY,,,Record Qualifier,"Used to indicate a derived record (e.g., a record that represents the average of other records such as a computed baseline). Should be ""Y"" or null.",Perm
Findings,GF,46,GFLLOQ,Lower Limit of Quantitation,Num,,,,Variable Qualifier,Indicates the lower limit of quantitation for an assay. Units will be those used for GFSTRESU.,Perm
Findings,GF,47,GFREPNUM,Repetition Number,Num,,,,Record Qualifier,The instance number of a test that is repeated within a given timeframe for the same test performed by the wet lab.,Perm
Findings,GF,48,VISITNUM,Visit Number,Num,,,,Timing,"Clinical encounter number. Numeric version of VISIT, used for sorting.",Exp
Findings,GF,49,VISIT,Visit Name,Char,,,,Timing,Protocol-defined description of clinical encounter.,Perm
Findings,GF,50,VISITDY,Planned Study Day of Visit,Num,,,,Timing,Planned study day of VISIT. Should be an integer.,Perm
Findings,GF,51,GFDTC,Date/Time of Specimen Collection,Char,,,ISO 8601 datetime or interval,Timing,Date and time of specimen collection.,Exp
Findings,GF,52,GFDY,Study Day of Specimen Collection,Num,,,,Timing,Actual study day of visit/collection/exam expressed in integer days relative to the sponsor-defined RFSTDTC in Demographics.,Perm
Findings,GF,53,GFTPT,Planned Time Point Name,Char,,,,Timing,"Text description of time when a measurement or observation should be taken as defined in the protocol. This may be represented as an elapsed time relative to a fixed reference point, such as time of last dose. See GFTPTNUM and GFTPTREF.",Perm
Findings,GF,54,GFTPTNUM,Planned Time Point Number,Num,,,,Timing,Numerical version of GFTPT used in sorting.,Perm
Findings,GF,55,GFELTM,Planned Elapsed Time from Time Point Ref,Char,,,ISO 8601 duration,Timing,"Elapsed time relative to a planned fixed reference (GFTPTREF). This variable is useful where there are repetitive measures. Not a clock time or a date time variable, but an interval, represented as ISO duration.",Perm
Findings,GF,56,GFTPTREF,Time Point Reference,Char,,,,Timing,"Name of the fixed reference point referred to by GFELTM, GFTPTNUM, and GFTPT. Examples: ""PREVIOUS DOSE"", ""PREVIOUS MEAL"".",Perm
Findings,GF,57,GFRFTDTC,Date/Time of Reference Time Point,Char,,,ISO 8601 datetime or interval,Timing,Date/time for a fixed reference time point defined by GFTPTREF.,Perm
Findings,IE,1,STUDYID,Study Identifier,Char,,,,Identifier,Unique identifier for a study.,Req
Findings,IE,2,DOMAIN,Domain Abbreviation,Char,,IE,,Identifier,Two-character abbreviation for the domain.,Req
Findings,IE,3,USUBJID,Unique Subject Identifier,Char,,,,Identifier,Identifier used to uniquely identify a subject across all studies for all applications or submissions involving the product.,Req
Findings,IE,4,IESEQ,Sequence Number,Num,,,,Identifier,Sequence number given to ensure uniqueness of subject records within a domain. May be any valid number.,Req
Findings,IE,5,IESPID,Sponsor-Defined Identifier,Char,,,,Identifier,Sponsor-defined reference number. May be preprinted on the CRF as an explicit line identifier or defined in the sponsor's operational database. Example: Inclusion or exclusion criteria number from CRF.,Perm
Findings,IE,6,IETESTCD,Inclusion/Exclusion Criterion Short Name,Char,,,,Topic,"Short name of the criterion described in IETEST. The value in IETESTCD cannot be longer than 8 characters, nor can it start with a number (e.g., ""1TEST"" is not valid). IETESTCD cannot contain characters other than letters, numbers, or underscores. Examples: ""IN01"", ""EX01"".",Req
Findings,IE,7,IETEST,Inclusion/Exclusion Criterion,Char,,,,Synonym Qualifier,Verbatim description of the inclusion or exclusion criterion that was the exception for the subject within the study. IETEST cannot be longer than 200 characters.,Req
Findings,IE,8,IECAT,Inclusion/Exclusion Category,Char,IECAT,,,Grouping Qualifier,Used to define a category of related records across subjects.,Req
Findings,IE,9,IESCAT,Inclusion/Exclusion Subcategory,Char,,,,Grouping Qualifier,"A further categorization of the exception criterion. Can be used to distinguish criteria for a sub-study or for to categorize as a major or minor exceptions. Examples: ""MAJOR"", ""MINOR"".",Perm
Findings,IE,10,IEORRES,I/E Criterion Original Result,Char,NY,,,Result Qualifier,"Original response to inclusion/exclusion criterion question, i.e., whether the inclusion or exclusion criterion was met.",Req
Findings,IE,11,IESTRESC,I/E Criterion Result in Std Format,Char,NY,,,Result Qualifier,"Response to inclusion/exclusion criterion result, in standard format.",Req
Findings,IE,12,VISITNUM,Visit Number,Num,,,,Timing,"Clinical encounter number. Numeric version of VISIT, used for sorting.",Perm
Findings,IE,13,VISIT,Visit Name,Char,,,,Timing,Protocol-defined description of clinical encounter. May be used in addition to VISITNUM and/or VISITDY.,Perm
Findings,IE,14,VISITDY,Planned Study Day of Visit,Num,,,,Timing,Planned study day of the visit based upon RFSTDTC in Demographics.,Perm
Findings,IE,15,TAETORD,Planned Order of Element within Arm,Num,,,,Timing,Number that gives the planned order of the element within the arm for the element in which the assessment was made.,Perm
Findings,IE,16,EPOCH,Epoch,Char,EPOCH,,,Timing,Epoch associated with the observation date/time of the inclusion/exclusion finding.,Perm
Findings,IE,17,IEDTC,Date/Time of Collection,Char,,,ISO 8601 datetime or interval,Timing,Collection date and time of the inclusion/exclusion criterion represented in ISO 8601 character format.,Perm
Findings,IE,18,IEDY,Study Day of Collection,Num,,,,Timing,"Study day of collection of the inclusion/exclusion exceptions, measured as integer days. Algorithm for calculations must be relative to the sponsor-defined RFSTDTC variable in Demographics. This formula should be consistent across the submission.",Perm
Findings,IS,1,STUDYID,Study Identifier,Char,,,,Identifier,Unique identifier for a study.,Req
Findings,IS,2,DOMAIN,Domain Abbreviation,Char,,IS,,Identifier,Two-character abbreviation for the domain.,Req
Findings,IS,3,USUBJID,Unique Subject Identifier,Char,,,,Identifier,Identifier used to uniquely identify a subject across all studies for all applications or submissions involving the product.,Req
Findings,IS,4,NHOID,Non-host Organism ID,Char,,,,Identifier,"Sponsor-defined identifier for a non-host organism which should only be used when the organism is the subject of the TEST. This variable should be populated with an intuitive name based on the identity of the non-host organism as reported by a lab (e.g., ""A/California/7/2009 (H1N1)""). It is not to be used as a qualifier of the result in the record on which it appears.",Perm
Findings,IS,5,ISSEQ,Sequence Number,Num,,,,Identifier,Sequence number to ensure uniqueness of records within a dataset for a subject. May be any valid number (including decimals) and does not have to start at 1.,Req
Findings,IS,6,ISGRPID,Group ID,Char,,,,Identifier,Used to tie together a block of related records in a single domain for a subject.,Perm
Findings,IS,7,ISREFID,Reference ID,Char,,,,Identifier,"Internal or external specimen identifier. Example: ""458975-01"".",Perm
Findings,IS,8,ISSPID,Sponsor-Defined Identifier,Char,,,,Identifier,Sponsor-defined identifier.,Perm
Findings,IS,9,ISTESTCD,Immunogenicity Test/Exam Short Name,Char,ISTESTCD,,,Topic,"Short name of the measurement, test, or examination described in ISTEST. It can be used as a column name when converting a dataset from a vertical to a horizontal format. The value in ISTESTCD cannot be longer than 8 characters, nor can it start with a number (e.g., ""1TEST"" is not valid). ISTESTCD cannot contain characters other than letters, numbers, or underscores.",Req
Findings,IS,10,ISTEST,Immunogenicity Test or Examination Name,Char,ISTEST,,,Synonym Qualifier,"Verbatim name of the test or examination used to obtain the measurement or finding. The value in ISTEST cannot be longer than 40 characters. Example: ""Immunoglobulin E"".",Req
Findings,IS,11,ISTSTCND,Test Condition,Char,TESTCOND,,,Variable Qualifier,Identifies any planned condition imposed by the assay system on the specimen at the time the test is performed.,Perm
Findings,IS,12,ISCNDAGT,Test Condition Agent,Char,,,,Record Qualifier,"The textual description of the agent used to impose a test condition. Examples are different stimulating agents used in immunoassays such as those in the Interferon Gamma Response assay (e.g., Mycobacterium tuberculosis ESAT-6, CFP-10, TB 7.7, Mitogen).",Perm
Findings,IS,13,ISBDAGNT,Binding Agent,Char,MICROORG,,,Variable Qualifier,"Text description of the agent that is binding to the entity in the ISTEST variable. ISBDAGNT is used to indicate that there is a binding relationship between the entities in the ISTEST and ISBDAGNT variables, regardless of direction. \n ISBDAGNT is not a method qualifier. It should only be used when the actual interest of the measurement is the binding interaction between the 2 entities in ISTEST and ISBDAGNT. In other words, the combination of ISTEST and ISBDAGNT should describe the entity or the analyte being measured, without the need for additional variables. \n The binding agent may be (but is not limited to) a test article, a portion of the test article, a related compound, an endogenous molecule, an allergen, or an infectious agent.",Perm
Findings,IS,14,ISTSTOPO,Test Operational Objective,Char,TSTOPOBJ,,,Variable Qualifier,"Text description of the high-level purpose of the test at the operational level. If populated, valid values are ""SCREEN"", ""CONFIRM"", and ""QUANTIFY"".",Perm
Findings,IS,15,ISMSCBCE,Molecule Secreted by Cells,Char,,,,Variable Qualifier,"Text description of the entity secreted by the cells represented in ISTEST. The combination of ISTEST and ISMSCBCE should describe the entity or the analyte being measured, without the need for additional variables.",Perm
Findings,IS,16,ISTSTDTL,Test Detail,Char,,,,Variable Qualifier,Further description of ISTESTCD and ISTEST.,Perm
Findings,IS,17,ISCAT,Category for Immunogenicity Test,Char,,,,Grouping Qualifier,"Used to define a category of topic-variable values across subjects. Example: ""SEROLOGY"".",Perm
Findings,IS,18,ISSCAT,Subcategory for Immunogenicity Test,Char,,,,Grouping Qualifier,A further categorization of ISCAT.,Perm
Findings,IS,19,ISORRES,Results or Findings in Original Units,Char,,,,Result Qualifier,Result of the measurement or finding as originally received or collected.,Exp
Findings,IS,20,ISORRESU,Original Units,Char,UNIT,,,Variable Qualifier,"Original units in which the data were collected. The unit for ISORRES. Examples: ""Index Value"", ""gpELISA"", ""unit/mL"".",Exp
Findings,IS,21,ISORNRLO,Reference Range Lower Limit in Orig Unit,Char,,,,Variable Qualifier,Lower end of reference range for continuous measurement in original units. Should be populated only for continuous results.,Exp
Findings,IS,22,ISORNRHI,Reference Range Upper Limit in Orig Unit,Char,,,,Variable Qualifier,Upper end of reference range for continuous measurement in original units. Should be populated only for continuous results.,Exp
Findings,IS,23,ISSTRESC,Character Result/Finding in Std Format,Char,,,,Result Qualifier,"Contains the result value for all findings copied or derived from ISORRES, in a standard format or in standard units. ISSTRESC should store all results or findings in character format; if results are numeric, they should also be stored in numeric format in ISSTRESN.",Exp
Findings,IS,24,ISSTRESN,Numeric Results/Findings in Std. Units,Num,,,,Result Qualifier,Used for continuous or numeric results or findings in standard format; copied in numeric format from ISSTRESC. ISSTRESN should store all numeric test results or findings.,Exp
Findings,IS,25,ISSTRESU,Standard Units,Char,UNIT,,,Variable Qualifier,"Standardized units used for ISSTRESC and ISSTRESN. Examples: ""Index Value"", ""gpELISA"", ""unit/mL"".",Exp
Findings,IS,26,ISSTNRLO,Reference Range Lower Limit-Std Units,Num,,,,Variable Qualifier,Lower end of reference range for continuous measurements for ISSTRESC/ISSTRESN in standardized units. Should be populated only for continuous results.,Exp
Findings,IS,27,ISSTNRHI,Reference Range Upper Limit-Std Units,Num,,,,Variable Qualifier,Upper end of reference range for continuous measurements in standardized units. Should be populated only for continuous results.,Exp
Findings,IS,28,ISSTNRC,Reference Range for Char Rslt-Std Units,Char,,,,Variable Qualifier,"For normal range values that are character in ordinal scale or if categorical ranges were supplied. Examples: ""-1 to +1"", ""NEGATIVE TO TRACE"".",Perm
Findings,IS,29,ISNRIND,Reference Range Indicator,Char,NRIND,,,Variable Qualifier,"Indicates where the value falls with respect to reference range defined by ISORNRLO and ISORNRHI, ISSTNRLO and ISSTNRHI, or by ISSTNRC. Examples: ""NORMAL"", ""ABNORMAL"", ""HIGH"", ""LOW"". \n Sponsors should specify in the study metadata (Comments column in the Define-XML document) whether ISNRIND refers to the original or standard reference ranges and results. \n Should not be used to indicate clinical significance.",Exp
Findings,IS,30,ISSTAT,Completion Status,Char,ND,,,Record Qualifier,Used to indicate a test was not done. Should be null if a result exists in ISORRES.,Perm
Findings,IS,31,ISREASND,Reason Not Done,Char,,,,Record Qualifier,"Describes why a measurement or test was not performed. Used in conjunction with ISSTAT when value is ""NOT DONE"".",Perm
Findings,IS,32,ISNAM,Vendor Name,Char,,,,Record Qualifier,Name or identifier of the laboratory or vendor who provided the test results.,Perm
Findings,IS,33,ISSPEC,Specimen Type,Char,SPECTYPE,,,Record Qualifier,"Defines the types of specimen used for a measurement. Example: ""SERUM"".",Perm
Findings,IS,34,ISSPCCND,Specimen Condition,Char,SPECCOND,,,Record Qualifier,"Free or standardized text describing the condition of the specimen. Examples: ""HEMOLYZED"", ""ICTERIC"", ""LIPEMIC"".",Perm
Findings,IS,35,ISSPCUFL,Specimen Usability for the Test,Char,NY,,,Record Qualifier,"Describes the usability of the specimen for the test. The value will be ""N"" if the specimen is not usable, and null if the specimen is usable.",Perm
Findings,IS,36,ISMETHOD,Method of Test or Examination,Char,METHOD,,,Record Qualifier,"Method of the test or examination. Examples: ""ELISA"", ""ELISPOT"".",Perm
Findings,IS,37,ISLOBXFL,Last Observation Before Exposure Flag,Char,NY,,,Record Qualifier,"Operationally derived indicator used to identify the last non-missing value prior to RFXSTDTC. The value should be ""Y"" or null.",Perm
Findings,IS,38,ISBLFL,Baseline Flag,Char,NY,,,Record Qualifier,"Indicator used to identify a baseline value. Should be ""Y"" or null. Note that ISBLFL is retained for backward compatibility. The authoritative baseline for statistical analysis is in an ADaM dataset.",Perm
Findings,IS,39,ISDRVFL,Derived Flag,Char,NY,,,Record Qualifier,"Used to indicate a derived record. The value should be ""Y"" or null. Examples of records that might be derived for the submission datasets include those that represent the average of other records, do not come from the CRF, or are not as originally received or collected. If ISDRVFL=""Y"", then ISORRES may be null, with ISSTRESC and (if numeric) ISSTRESN having the derived value.",Perm
Findings,IS,40,ISLLOQ,Lower Limit of Quantitation,Num,,,,Variable Qualifier,Indicates the lower limit of quantitation for an assay. Units will be those used for ISSTRESU.,Exp
Findings,IS,41,VISITNUM,Visit Number,Num,,,,Timing,"Clinical encounter number. Numeric version of VISIT, used for sorting.",Exp
Findings,IS,42,VISIT,Visit Name,Char,,,,Timing,Protocol-defined description of a clinical encounter. May be used in addition to VISITNUM and/or VISITDY.,Perm
Findings,IS,43,VISITDY,Planned Study Day of Visit,Num,,,,Timing,Planned study day of the visit based upon RFSTDTC in Demographics.,Perm
Findings,IS,44,TAETORD,Planned Order of Element within Arm,Num,,,,Timing,Number that gives the planned order of the element within the arm.,Perm
Findings,IS,45,EPOCH,Epoch,Char,EPOCH,,,Timing,"Epoch associated with the start date/time of the observation, or the date/time of collection if start date/time is not collected.",Perm
Findings,IS,46,ISDTC,Date/Time of Collection,Char,,,ISO 8601 datetime or interval,Timing,Collection date and time of an observation.,Exp
Findings,IS,47,ISENDTC,End Date/Time of Specimen Collection,Char,,,ISO 8601 datetime or interval,Timing,End date/time of the observation.,Perm
Findings,IS,48,ISDY,Study Day of Visit/Collection/Exam,Num,,,,Timing,Actual study day of visit/collection/exam expressed in integer days relative to sponsor-defined RFSTDTC in Demographics.,Perm
Findings,IS,49,ISENDY,Study Day of End of Specimen Collection,Num,,,,Timing,Actual study day of end of observation expressed in integer days relative to the sponsor-defined RFSTDTC in Demographics.,Perm
Findings,IS,50,ISTPT,Planned Time Point Name,Char,,,,Timing,"Text description of time when specimen should be taken. This may be represented as an elapsed time relative to a fixed reference point, such as time of last dose. See ISTPTNUM and ISTPTREF. Examples: ""Start"", ""5 min post"".",Perm
Findings,IS,51,ISTPTNUM,Planned Time Point Number,Num,,,,Timing,Numerical version of ISTPT to aid in sorting.,Perm
Findings,IS,52,ISELTM,Planned Elapsed Time from Time Point Ref,Char,,,ISO 8601 duration,Timing,"Planned elapsed time (in ISO 8601) relative to a planned fixed reference (ISTPTREF). This variable is useful where there are repetitive measures. Not a clock time or a date/time variable. Represented as ISO 8601 duration. Examples: ""-PT15M"" to represent the period of 15 minutes prior to the reference point indicated by ISTPTREF, ""PT8H"" to represent the period of 8 hours after the reference point indicated by ISTPTREF.",Perm
Findings,IS,53,ISTPTREF,Time Point Reference,Char,,,,Timing,"Name of the fixed reference point referred to by ISELTM, ISTPTNUM, and ISTPT. Examples: ""PREVIOUS DOSE"", ""PREVIOUS MEAL"".",Perm
Findings,IS,54,ISRFTDTC,Date/Time of Reference Time Point,Char,,,ISO 8601 datetime or interval,Timing,"Date/time of the reference time point, ISTPTREF.",Perm
Findings,LB,1,STUDYID,Study Identifier,Char,,,,Identifier,Unique identifier for a study.,Req
Findings,LB,2,DOMAIN,Domain Abbreviation,Char,,LB,,Identifier,Two-character abbreviation for the domain.,Req
Findings,LB,3,USUBJID,Unique Subject Identifier,Char,,,,Identifier,Identifier used to uniquely identify a subject across all studies for all applications or submissions involving the product.,Req
Findings,LB,4,LBSEQ,Sequence Number,Num,,,,Identifier,Sequence number given to ensure uniqueness of subject records within a domain. May be any valid number.,Req
Findings,LB,5,LBGRPID,Group ID,Char,,,,Identifier,Used to tie together a block of related records in a single domain for a subject.,Perm
Findings,LB,6,LBREFID,Specimen ID,Char,,,,Identifier,Internal or external specimen identifier. Example: specimen ID.,Perm
Findings,LB,7,LBSPID,Sponsor-Defined Identifier,Char,,,,Identifier,Sponsor-defined reference number. May be preprinted on the CRF as an explicit line identifier or defined in the sponsor's operational database. Example: Line number on the Lab page.,Perm
Findings,LB,8,LBTESTCD,Lab Test or Examination Short Name,Char,LBTESTCD,,,Topic,"Short name of the measurement, test, or examination described in LBTEST. It can be used as a column name when converting a dataset from a vertical to a horizontal format. The value in LBTESTCD cannot be longer than 8 characters, nor can it start with a number (e.g., ""1TEST"" is not valid). LBTESTCD cannot contain characters other than letters, numbers, or underscores. Examples: ""ALT"", ""LDH"".",Req
Findings,LB,9,LBTEST,Lab Test or Examination Name,Char,LBTEST,,,Synonym Qualifier,"Verbatim name of the test or examination used to obtain the measurement or finding. Note: Any test normally performed by a clinical laboratory is considered a lab test. The value in LBTEST cannot be longer than 40 characters. Examples: ""Alanine Aminotransferase"", ""Lactate Dehydrogenase"".",Req
Findings,LB,10,LBTSTCND,Test Condition,Char,TESTCOND,,,Variable Qualifier,Identifies any planned condition imposed by the assay system on the specimen at the time the test is performed.,Perm
Findings,LB,11,LBBDAGNT,Binding Agent,Char,,,,Variable Qualifier,"The textual description of the agent that is binding to the entity in the LBTEST variable. The LBBDAGNT variable is used to indicate that there is a binding relationship between the entities in the LBTEST and LBBDAGNT variables, regardless of direction. \n LBBDAGNT is not a method qualifier. It should only be used when the actual interest of the measurement is the binding interaction between the 2 entities in LBTEST and LBBDAGNT. In other words, the combination of LBTEST and LBBDAGNT should describe the thing, the entity, or the analyte being measured, without the need for additional variables. \n The binding agent may be (but is not limited to) a test article, a portion of the test article, a related compound, or an endogenous molecule.",Perm
Findings,LB,12,LBTSTOPO,Test Operational Objective,Char,TSTOPOBJ,,,Variable Qualifier,Text description of the high-level purpose of the test at the operational level.,Perm
Findings,LB,13,LBCAT,Category for Lab Test,Char,,,,Grouping Qualifier,"Used to define a category of related records across subjects. Examples: ""HEMATOLOGY"", ""URINALYSIS"", ""CHEMISTRY"".",Exp
Findings,LB,14,LBSCAT,Subcategory for Lab Test,Char,,,,Grouping Qualifier,"A further categorization of a test category. Examples: ""DIFFERENTIAL"", ""COAGULATION"", ""LIVER FUNCTION"", ""ELECTROLYTES"".",Perm
Findings,LB,15,LBORRES,Result or Finding in Original Units,Char,,,,Result Qualifier,Result of the measurement or finding as originally received or collected.,Exp
Findings,LB,16,LBORRESU,Original Units,Char,UNIT,,,Variable Qualifier,"Original units in which the data were collected. The unit for LBORRES. Example: ""g/L"".",Exp
Findings,LB,17,LBRESSCL,Result Scale,Char,RSLSCLRS,,,Record Qualifier,"Classifies the scale of the original result value; for example, whether the result is ordinal, nominal, quantitative, or narrative.",Perm
Findings,LB,18,LBRESTYP,Result Type,Char,RESTYPRS,,,Record Qualifier,"Classifies the kind of result (i.e., property type) originally reported for the test. Examples include substance concentration, proportion, mass rate, and arbitrary concentration.",Perm
Findings,LB,19,LBCOLSRT,Collected Summary Result Type,Char,COLSTYP,,,Record Qualifier,"Used to indicate the type of collected summary result. This includes source summary results collected on a CRF or provided by an external vendor (e.g., central lab). If the summary result is derived by the sponsor using individual source data records from SDTM, the derived summary result is represented in ADaM. If the summary result is produced and reported by the lab, the collected summary result is represented in SDTM.",Perm
Findings,LB,20,LBORNRLO,Reference Range Lower Limit in Orig Unit,Char,,,,Variable Qualifier,Lower end of reference range for continuous measurement in original units. Should be populated only for continuous results.,Exp
Findings,LB,21,LBORNRHI,Reference Range Upper Limit in Orig Unit,Char,,,,Variable Qualifier,Upper end of reference range for continuous measurement in original units. Should be populated only for continuous results.,Exp
Findings,LB,22,LBLLOD,Lower Limit of Detection,Char,,,,Variable Qualifier,The lowest threshold (as originally received or collected) for reliably detecting the presence or absence of substance measured by a specific test. The value for the field will be as described in documentation from the instrument or lab vendor.,Perm
Findings,LB,23,LBSTRESC,Character Result/Finding in Std Format,Char,LBSTRESC,,,Result Qualifier,"Contains the result value for all findings, copied or derived from LBORRES in a standard format or standard units. LBSTRESC should store all results or findings in character format; if results are numeric, they should also be stored in numeric format in LBSTRESN. For example, if a test has results ""NONE"", ""NEG"", and ""NEGATIVE"" in LBORRES and these results effectively have the same meaning, they could be represented in standard format in LBSTRESC as ""NEGATIVE"". For other examples, see Original and Standardized Results.",Exp
Findings,LB,24,LBSTRESN,Numeric Result/Finding in Standard Units,Num,,,,Result Qualifier,Used for continuous or numeric results or findings in standard format; copied in numeric format from LBSTRESC. LBSTRESN should store all numeric test results or findings.,Exp
Findings,LB,25,LBSTRESU,Standard Units,Char,UNIT,,,Variable Qualifier,Standardized unit used for LBSTRESC or LBSTRESN.,Exp
Findings,LB,26,LBSTNRLO,Reference Range Lower Limit-Std Units,Num,,,,Variable Qualifier,Lower end of reference range for continuous measurements for LBSTRESC/LBSTRESN in standardized units. Should be populated only for continuous results.,Exp
Findings,LB,27,LBSTNRHI,Reference Range Upper Limit-Std Units,Num,,,,Variable Qualifier,Upper end of reference range for continuous measurements in standardized units. Should be populated only for continuous results.,Exp
Findings,LB,28,LBSTNRC,Reference Range for Char Rslt-Std Units,Char,,,,Variable Qualifier,"For normal range values that are character in ordinal scale or if categorical ranges were supplied. Examples: ""-1 to +1"", ""NEGATIVE TO TRACE"".",Perm
Findings,LB,29,LBNRIND,Reference Range Indicator,Char,NRIND,,,Variable Qualifier,"Indicates where the value falls with respect to reference range defined by LBORNRLO and LBORNRHI, LBSTNRLO and LBSTNRHI, or by LBSTNRC. Examples: ""NORMAL"", ""ABNORMAL"", ""HIGH"", ""LOW"". Sponsors should specify in the study metadata (Comments column in the Define-XML document) whether LBNRIND refers to the original or standard reference ranges and results. LBNRIND is not used to indicate clinical significance.",Exp
Findings,LB,30,LBSTAT,Completion Status,Char,ND,,,Record Qualifier,Used to indicate exam not done. Should be null if a result exists in LBORRES.,Perm
Findings,LB,31,LBREASND,Reason Test Not Done,Char,,,,Record Qualifier,"Describes why a measurement or test was not performed. Examples: ""BROKEN EQUIPMENT"", ""SUBJECT REFUSED"", or ""SPECIMEN LOST"". Used in conjunction with LBSTAT when value is ""NOT DONE"".",Perm
Findings,LB,32,LBNAM,Vendor Name,Char,,,,Record Qualifier,The name or identifier of the laboratory that performed the test.,Perm
Findings,LB,33,LBLOINC,LOINC Code,Char,,,LOINC,Synonym Qualifier,Code for the lab test from the LOINC code system. The sponsor is expected to provide the dictionary name and version used to map the terms utilizing the Define-XML external codelist attributes.,Perm
Findings,LB,34,LBSPEC,Specimen Type,Char,SPECTYPE,,,Record Qualifier,"Defines the type of specimen used for a measurement. Examples: ""SERUM"", ""PLASMA"", ""URINE"".",Perm
Findings,LB,35,LBSPCCND,Specimen Condition,Char,SPECCOND,,,Record Qualifier,"The physical state or quality of a sample for an assessment. Examples: ""HEMOLYZED"", ""ICTERIC"", ""LIPEMIC"".",Perm
Findings,LB,36,LBSPCUFL,Specimen Usability for the Test,Char,NY,,,Record Qualifier,"Describes the usability of the specimen for the test. The value will be ""N"" if the specimen is not usable, and null if the specimen is usable.",Perm
Findings,LB,37,LBMETHOD,Method of Test or Examination,Char,METHOD,,,Record Qualifier,"Method of the test or examination. Examples: ""EIA"" (enzyme immunoassay), ""ELECTROPHORESIS"", ""DIPSTICK"".",Perm
Findings,LB,38,LBANMETH,Analysis Method,Char,LBANMET,,,Record Qualifier,"Analysis method applied to obtain a summarized result. Analysis method describes the method of secondary processing applied to a complex observation result (e.g., a calculation used to measure eGFR).",Perm
Findings,LB,39,LBTMTHSN,Test Method Sensitivity,Char,TSTMTHSN,,,Record Qualifier,"The sensitivity of the test methodology with respect to observation, detection, or quantification.",Perm
Findings,LB,40,LBLOBXFL,Last Observation Before Exposure Flag,Char,NY,,,Record Qualifier,"Operationally derived indicator used to identify the last non-missing value prior to RFXSTDTC. The value should be ""Y"" or null.",Exp
Findings,LB,41,LBBLFL,Baseline Flag,Char,NY,,,Record Qualifier,"Indicator used to identify a baseline value. Should be ""Y"" or null. Note that LBBLFL is retained for backward compatibility. The authoritative baseline for statistical analysis is in an ADaM dataset.",Perm
Findings,LB,42,LBFAST,Fasting Status,Char,NY,,,Record Qualifier,"Indicator used to identify fasting status. Examples: ""Y"", ""N"".",Perm
Findings,LB,43,LBDRVFL,Derived Flag,Char,NY,,,Record Qualifier,"Used to indicate a derived record. The value should be ""Y"" or null. Records that represent the average of other records, or do not come from the CRF, or are not as originally received or collected are examples of records that might be derived for the submission datasets. If LBDRVFL=""Y"", then LBORRES may be null, with LBSTRESC and (if numeric) LBSTRESN having the derived value.",Perm
Findings,LB,44,LBTOX,Toxicity,Char,,,,Variable Qualifier,"Description of toxicity quantified by LBTOXGR. The sponsor is expected to provide the name of the scale and version used to map the terms, utilizing the external codelist element in the Define-XML document.",Perm
Findings,LB,45,LBTOXGR,Standard Toxicity Grade,Char,,,,Record Qualifier,"Records toxicity grade value using a standard toxicity scale (e.g., the NCI CTCAE). If value is from a numeric scale, represent only the number (e.g., ""2"" not ""Grade 2""). The sponsor is expected to provide the name of the scale and version used to map the terms, utilizing the external codelist element in the Define-XML document.",Perm
Findings,LB,46,LBCLSIG,"Clinically Significant, Collected",Char,NY,,,Record Qualifier,Used to indicate whether a collected observation is clinically significant based on judgment.,Perm
Findings,LB,47,VISITNUM,Visit Number,Num,,,,Timing,"Clinical encounter number. Numeric version of VISIT, used for sorting.",Exp
Findings,LB,48,VISIT,Visit Name,Char,,,,Timing,Protocol-defined description of clinical encounter. May be used in addition to VISITNUM and/or VISITDY.,Perm
Findings,LB,49,VISITDY,Planned Study Day of Visit,Num,,,,Timing,Planned study day of the visit based upon RFSTDTC in Demographics.,Perm
Findings,LB,50,TAETORD,Planned Order of Element within Arm,Num,,,,Timing,Number that gives the planned order of the element within the arm.,Perm
Findings,LB,51,EPOCH,Epoch,Char,EPOCH,,,Timing,"Epoch associated with the start date/time of the observation, or the date/time of collection if start date/time is not collected.",Perm
