Class,Dataset Name,Order,Variable Name,Label,Type,Codelist,Value list,Format,Role,Notes,Core
Interventions,EX,1,STUDYID,Study Identifier,Char,,,,Identifier,Unique identifier for a study.,Req
Interventions,EX,2,DOMAIN,Domain Abbreviation,Char,,EX,,Identifier,Two-character abbreviation for the domain.,Req
Interventions,EX,3,USUBJID,Unique Subject Identifier,Char,,,,Identifier,Identifier used to uniquely identify a subject across all studies for all applications or submissions involving the product. Either USUBJID or POOLID must be populated.,Exp
Interventions,EX,4,POOLID,Pool Identifier,Char,,,,Identifier,"Identifier used for pooling subjects to assign a single finding to multiple subjects. If POOLID is entered, POOLDEF records must exist for each subject and the USUBJID must be null. Either USUBJID or POOLID must be populated.",Perm
Interventions,EX,5,FOCID,Focus of Study-Specific Interest,Char,,,,Identifier,"Identification of a focus of study-specific interest on or within a subject or specimen as defined in the protocol for which a measurement, test, or examination was performed, such as a drug application site, e.g., ""Injection site 1,"" ""Biopsy site 1,"" ""Treated site 1."" the value in this variable should have inherent semantic value.",Perm
Interventions,EX,6,EXSEQ,Sequence Number,Num,,,,Identifier,"The sequence number must be unique for each record within a USUBJID or POOLID, whichever applies for the record.",Req
Interventions,EX,7,EXTRT,Name of Actual Treatment,Char,,,,Topic,"Name of the treatment, as defined by the protocol.",Req
Interventions,EX,8,EXDOSE,Dose per Administration,Num,,,,Record Qualifier,Amount of treatment administered.,Exp
Interventions,EX,9,EXDOSTXT,Dose Description,Char,,,,Record Qualifier,"If the amount of treatment administered cannot be represented as a number and populated in EXDOSE, this field is used to describe the amount of treatment administered. Example: 200-400.",Perm
Interventions,EX,10,EXDOSU,Dose Units,Char,UNIT,,,Variable Qualifier,"Units for EXDOSE or EXDOSTXT. Examples: ng, mg, or mg/kg.",Exp
Interventions,EX,11,EXDOSFRM,Dose Form,Char,FRM,,,Variable Qualifier,"Dose form for treatment (form administered). Examples: TABLET, LOTION.",Exp
Interventions,EX,12,EXDOSFRQ,Dosing Frequency Per Interval,Char,FREQ,,,Variable Qualifier,"Usually expressed as the number of repeated administrations of EXDOSE within a specific time period. Examples: QD (once daily), BID (2x daily).",Req
Interventions,EX,13,EXROUTE,Route of Administration,Char,ROUTE,,,Variable Qualifier,"Route of administration for EXTRT. Examples: ORAL GAVAGE, DERMAL, INTRAVENOUS.",Req
Interventions,EX,14,EXLOT,Lot Number,Char,,,,Record Qualifier,"Lot Number(s) or Batch Number(s) of the EXTRT test article. If mixed lots of the test article are administered during the same constant dosing interval, this should be represented as ""Lot A;Lot B."" Mixed lots are produced by the mixing of Lots a and B of the test article into one solution, suspension, or dietary food concentration. If no test article was administered, EXLOT should be null.",Exp
Interventions,EX,15,EXLOC,Location of Dose Administration,Char,,,,Record Qualifier,Specifies anatomical location (site) of administration. Example: LEFT HINDLIMB for a topical application or an injection site number. Each administration will require its own record.,Perm
Interventions,EX,16,EXMETHOD,Method of Administration,Char,,,,Record Qualifier,Method of the dose administration. Example: INFUSION.,Perm
Interventions,EX,17,EXTRTV,Treatment Vehicle,Char,,,,Record Qualifier,Describes vehicle used for treatment. Example: SALINE.,Exp
Interventions,EX,18,EXVAMT,Amount Administered,Num,,,,Record Qualifier,The amount (volume or weight) of the treatment compound plus vehicle administered in a single dose. This is not to be confused with EXDOSE. EXDOSE refers to the amount of test material administered to the subject.,Perm
Interventions,EX,19,EXVAMTU,Amount Administered Units,Char,UNIT,,,Variable Qualifier,Units for EXVAMT (per dose administration).,Perm
Interventions,EX,20,EXADJ,Reason for Dose Adjustment,Char,,,,Record Qualifier,"Describes reason or explanation of why a dose is adjusted - used only when an adjustment is represented in EX. May be used for variations from protocol-specified doses or changes from expected doses (e.g., when dose is adjusted due to toxicity).",Perm
Interventions,EX,21,EXSTDTC,Start Date/Time of Treatment,Char,,,ISO 8601,Timing,"Date/Time when administration of the treatment indicated by EXTRT and EXDOSE began, in ISO 8601 format.",Exp
Interventions,EX,22,EXENDTC,End Date/Time of Treatment,Char,,,ISO 8601,Timing,"Date/Time when administration of the treatment indicated by EXTRT and EXDOSE ended, in ISO 8601 format.",Perm
Interventions,EX,23,EXSTDY,Study Day of Start of Treatment,Num,,,,Timing,"Study day when administration of the treatment began, in integer days. The algorithm for calculations must be relative to the sponsor-defined RFSTDTC variable in the Demographics (DM) domain.",Perm
Interventions,EX,24,EXENDY,Study Day of End of Treatment,Num,,,,Timing,"Study day when administration of the treatment ended, in integer days. The algorithm for calculations must be relative to the sponsor-defined RFSTDTC variable in the Demographics (DM) domain.",Perm
Interventions,EX,25,EXDUR,Duration of Treatment,Char,,,ISO 8601,Timing,"Duration and unit of time for a continuous treatment. This may be used to denote the length of an infusion (e.g., PT10M to indicate 10 minutes).",Perm
Interventions,EX,26,EXTPT,Planned Time Point Name,Char,,,,Timing,"Text description of time when a dose should be given. Note: This may be represented as an elapsed time relative to a fixed reference point, such as time of last dose. See EXTPTNUM and EXTPTREF.",Perm
Interventions,EX,27,EXTPTNUM,Planned Time Point Number,Num,,,,Timing,Numerical version of EXTPT to aid in sorting.,Perm
Interventions,EX,28,EXELTM,Planned Elapsed Time from Time Point Ref,Char,,,ISO 8601,Timing,"Planned elapsed time (in ISO 8601 format) relative to the planned fixed reference (EXTPTREF). This variable is useful where there are repetitive measures. Not a clock time or a date time variable. Represented as an ISO 8601 duration. Examples: ""- PT15M"" to represent the period of 15 minutes prior to the reference point indicated by EXTPTREF, or ""PT8H"" to represent the period of 8 hours after the reference point indicated by EXTPTREF.",Perm
Interventions,EX,29,EXTPTREF,Time Point Reference,Char,,,,Timing,"Name of the fixed reference point referred to by EXELTM, if used for EXTPTNUM, and EXTPT. It is recommended that EXTPTREF be as descriptive as possible so the reference time point can be inferred without looking at other variables. Examples: Previous dose, previous feed.",Perm
Interventions,EX,30,EXRFTDTC,Date/Time of Reference Time Point,Char,,,ISO 8601,Timing,"Date/Time of the reference time point, EXTPTREF.",Perm
Events,DS,1,STUDYID,Study Identifier,Char,,,,Identifier,Unique identifier for a study.,Req
Events,DS,2,DOMAIN,Domain Abbreviation,Char,,DS,,Identifier,Two-character abbreviation for the domain.,Req
Events,DS,3,USUBJID,Unique Subject Identifier,Char,,,,Identifier,Identifier used to uniquely identify a subject across all studies for all applications or submissions involving the product.,Req
Events,DS,4,DSSEQ,Sequence Number,Num,,,,Identifier,Sequence number given to ensure uniqueness of subject records within a domain. May be any valid number.,Req
Events,DS,5,DSTERM,Reported Term for the Disposition Event,Char,,,,Topic,"DSTERM is the original term recorded for subject disposition. DSTERM is not under controlled terminology, but should be mapped to DSDECOD.",Req
Events,DS,6,DSDECOD,Standardized Disposition Term,Char,DSDECOD,,,Synonym Qualifier,Contains the result in a standard format.,Req
Events,DS,7,DSUSCHFL,Unscheduled Flag,Char,NY,,,Record Qualifier,"Indicates whether the subject's disposition was unscheduled. If the subject's disposition was based upon a schedule defined in the protocol, this flag should be null. Expected values are Y or null.",Exp
Events,DS,8,VISITDY,Planned Study Day of Disposition,Num,,,,Timing,Planned study day of collection. Should be an integer. VISITDY should be populated only when DSTERM represents a scheduled activity.,Perm
Events,DS,9,DSSTDTC,Date/Time of Disposition,Char,,,ISO 8601,Timing,"Date/Time of the disposition event, in ISO 8601 format.",Req
Events,DS,10,DSSTDY,Study Day of Disposition,Num,,,,Timing,"Study day of the disposition event, in integer days. The algorithm for calculations must be relative to the sponsor-defined RFSTDTC variable in the Demographics (DM) domain.",Perm
Events,DS,11,DSNOMDY,Nominal Study Day for Tabulations,Num,,,,Timing,Nominal study day used for grouping records for observations that may occur on different days into a single reported study day. Should be an integer.,Exp
Events,DS,12,DSNOMLBL,Label for Nominal Study Day,Char,,,,Timing,"A label for a given value of DSNOMDY as presented in the study report. Examples: Week 4, Day 28, Terminal Sac.",Perm
Findings,BW,1,STUDYID,Study Identifier,Char,,,,Identifier,Unique identifier for a study.,Req
Findings,BW,2,DOMAIN,Domain Abbreviation,Char,,BW,,Identifier,Two-character abbreviation for the domain.,Req
Findings,BW,3,USUBJID,Unique Subject Identifier,Char,,,,Identifier,Identifier used to uniquely identify a subject across all studies for all applications or submissions involving the product.,Req
Findings,BW,4,BWSEQ,Sequence Number,Num,,,,Identifier,Sequence number given to ensure uniqueness of subject records within a domain. May be any valid number.,Req
Findings,BW,5,BWTESTCD,Test Short Name,Char,BWTESTCD,,,Topic,"Short name of the measurement, test, or examination described in BWTEST. It can be used as a column name when converting a dataset from a vertical to a horizontal format. The value in BWTESTCD cannot be longer than 8 characters, nor can it start with a number (e.g., ""1TEST"" is not valid). BWTESTCD cannot contain characters other than letters, numbers, or underscores.",Req
Findings,BW,6,BWTEST,Test Name,Char,BWTEST,,,Synonym Qualifier,Long name for BWTESTCD. The value in BWTEST cannot be longer than 40 characters.,Req
Findings,BW,7,BWORRES,Result or Findings as Collected,Char,,,,Result Qualifier,Result of the measurement or finding as originally received or collected.,Exp
Findings,BW,8,BWORRESU,Unit of the Original Result,Char,UNIT,,,Variable Qualifier,The unit for the original result. The unit of the original result should be mapped to a synonymous unit on the Controlled Terminology list.,Exp
Findings,BW,9,BWSTRESC,Standardized Result in Character Format,Char,,,,Result Qualifier,"Contains the result value for all findings, copied or derived from BWORRES in a standard format or standard units. BWSTRESC should store all results or findings in character format; if results are numeric, they should also be submitted in numeric format in BWSTRESN.",Exp
Findings,BW,10,BWSTRESN,Standardized Result in Numeric Format,Num,,,,Result Qualifier,Used for numeric results or findings in standard format; contains the numeric form of BWSTRESC. BWSTRESN should store all numeric test results or findings.,Exp
Findings,BW,11,BWSTRESU,Unit of the Standardized Result,Char,UNIT,,,Variable Qualifier,Standardized unit used for BWSTRESC and BWSTRESN.,Exp
Findings,BW,12,BWSTAT,Completion Status,Char,ND,,,Record Qualifier,Used to indicate when a test is not done or result is missing. Should be null if a result exists in BWORRES.,Perm
Findings,BW,13,BWREASND,Reason Not Done,Char,,,,Record Qualifier,"Describes why BWSTAT is NOT DONE, such as BROKEN EQUIPMENT or TECHNICIAN OVERSIGHT.",Perm
Findings,BW,14,BWBLFL,Baseline Flag,Char,NY,,,Record Qualifier,A baseline indicator may be used to calculate differences or changes from baseline. Value should be Y or null. The baseline flag is sponsor defined.,Exp
Findings,BW,15,BWFAST,Fasting Status,Char,NY,,,Record Qualifier,Indicator used to identify fasting status. The value should by Y or null.,Perm
Findings,BW,16,BWEXCLFL,Exclusion Flag,Char,NY,,,Record Qualifier,"Y if the result should be excluded from all calculations, otherwise null.",Perm
Findings,BW,17,BWREASEX,Reason for Exclusion,Char,,,,Record Qualifier,The reason the result should be excluded from all calculations. Used only when BWEXCLFL is Y.,Perm
Findings,BW,18,BWUSCHFL,Unscheduled Flag,Char,NY,,,Record Qualifier,"Indicates whether the timing of a performed test or observation was unscheduled. If a test or observation was performed based upon a schedule defined in the protocol, this flag should be null. Expected values are Y or null.",Perm
Findings,BW,19,VISITDY,Planned Study Day of Collection,Num,,,,Timing,Planned study day of collection. Should be an integer.,Perm
Findings,BW,20,BWDTC,Date/Time Animal Weighed,Char,,,ISO 8601,Timing,Date/Time of body weight collection in ISO 8601 format.,Exp
Findings,BW,21,BWDY,Study Day Animal Weighed,Num,,,,Timing,"Study day of body weight collection, in integer days. The algorithm for calculations must be relative to the sponsor-defined RFSTDTC variable in the Demographics (DM) domain.",Perm
Findings,BW,22,BWNOMDY,Nominal Study Day for Tabulations,Num,,,,Timing,Nominal study day used for grouping records for observations that may occur on different days into a single reported study day. Should be an integer.,Exp
Findings,BW,23,BWNOMLBL,Label for Nominal Study Day,Char,,,,Timing,"A label for a given value of BWNOMDY as presented in the study report. Examples: ""Week 4,"" ""Day 28,"" ""Terminal Sac"".",Perm
Findings,BG,1,STUDYID,Study Identifier,Char,,,,Identifier,Unique identifier for a study.,Req
Findings,BG,2,DOMAIN,Domain Abbreviation,Char,,BG,,Identifier,Two-character abbreviation for the domain.,Req
Findings,BG,3,USUBJID,Unique Subject Identifier,Char,,,,Identifier,Identifier used to uniquely identify a subject across all studies for all applications or submissions involving the product.,Req
Findings,BG,4,BGSEQ,Sequence Number,Num,,,,Identifier,Sequence number given to ensure uniqueness of subject records within a domain. May be any valid number.,Req
Findings,BG,5,BGTESTCD,Test Short Name,Char,BGTESTCD,,,Topic,"Short name of the measurement, test, or examination described in BGTEST. It can be used as a column name when converting a dataset from a vertical to a horizontal format. The value in BGTESTCD cannot be longer than 8 characters, nor can it start with a number (e.g., ""1TEST"" is not valid). BGTESTCD cannot contain characters other than letters, numbers, or underscores.",Req
Findings,BG,6,BGTEST,Test Name,Char,BGTEST,,,Synonym Qualifier,Long name for BGTESTCD. The value in BGTEST cannot be longer than 40 characters.,Req
Findings,BG,7,BGORRES,Result or Findings as Collected,Char,,,,Result Qualifier,Result of the measurement or finding as originally received or collected.,Exp
Findings,BG,8,BGORRESU,Unit of the Original Result,Char,UNIT,,,Variable Qualifier,The unit for the original result. The unit of the original result should be mapped to a synonymous unit on the Controlled Terminology (http://www.cdisc.org/terminology) list.,Exp
Findings,BG,9,BGSTRESC,Standardized Result in Character Format,Char,,,,Result Qualifier,"Contains the result value for all findings, copied or derived from BGORRES in a standard format or standard units. BGSTRESC should store all results or findings in character format; if results are numeric, they should also be submitted in numeric format in BGSTRESN.",Exp
Findings,BG,10,BGSTRESN,Standardized Result in Numeric Format,Num,,,,Result Qualifier,Used for numeric results or findings in standard format; contains the numeric form of BGSTRESC. BGSTRESN should store all numeric test results or findings.,Exp
Findings,BG,11,BGSTRESU,Unit of the Standardized Result,Char,UNIT,,,Variable Qualifier,Standardized unit used for BGSTRESC and BGSTRESN.,Exp
Findings,BG,12,BGSTAT,Completion Status,Char,ND,,,Record Qualifier,Used to indicate when a test is not done or result is missing. Should be null if a result exists in BGORRES.,Perm
Findings,BG,13,BGREASND,Reason Not Done,Char,,,,Record Qualifier,"Describes why BGSTAT is NOT DONE, such as MISSING BODY WEIGHT.",Perm
Findings,BG,14,BGEXCLFL,Exclusion Flag,Char,NY,,,Record Qualifier,"Y if the result should be excluded from all calculations, otherwise null.",Perm
Findings,BG,15,BGREASEX,Reason for Exclusion,Char,,,,Record Qualifier,The reason the result should be excluded from all calculations. Used only when BGEXCLFL is Y.,Perm
Findings,BG,16,BGDTC,Date/Time Animal Weighed,Char,,,ISO 8601,Timing,"Date/Time of the start of the weight interval, in ISO 8601 format.",Exp
Findings,BG,17,BGENDTC,End Date/Time Animal Weighed,Char,,,ISO 8601,Timing,"Date/Time of the end of the weight interval, in ISO 8601 format.",Exp
Findings,BG,18,BGDY,Study Day of Start of Interval,Num,,,,Timing,"Study day of the start of the weight interval, in integer days. The algorithm for calculations must be relative to the sponsor-defined RFSTDTC variable in the Demographics (DM) domain.",Perm
Findings,BG,19,BGENDY,Study Day of End of Weight Interval,Num,,,,Timing,"Study day of the end of the weight interval, in integer days. The algorithm for calculations must be relative to the sponsor-defined RFSTDTC variable in the Demographics (DM) domain.",Perm
Findings,CL,1,STUDYID,Study Identifier,Char,,,,Identifier,Unique identifier for a study.,Req
Findings,CL,2,DOMAIN,Domain Abbreviation,Char,,CL,,Identifier,Two-character abbreviation for the domain.,Req
Findings,CL,3,USUBJID,Unique Subject Identifier,Char,,,,Identifier,Identifier used to uniquely identify a subject across all studies for all applications or submissions involving the product. Either USUBJID or POOLID must be populated.,Exp
Findings,CL,4,POOLID,Pool Identifier,Char,,,,Identifier,"Identifier used for pooling subjects to assign a single finding to multiple subjects. If POOLID is entered, POOLDEF records must exist for each subject and the USUBJID must be null. Either USUBJID or POOLID must be populated.",Perm
Findings,CL,5,FOCID,Focus of Study-Specific Interest,Char,,,,Identifier,"Identification of a focus of study-specific interest on or within a subject or specimen as defined in the protocol, for which a measurement, test, or examination was performed. An example could be a drug application site, e.g. ""Injection site 1,"" ""Biopsy site 1,"" ""Treated site 1."" the value in this variable should have inherent semantic value.",Perm
Findings,CL,6,CLSEQ,Sequence Number,Num,,,,Identifier,"The sequence number must be unique for each record within a USUBJID or POOLID, whichever applies for the record.",Req
Findings,CL,7,CLGRPID,Group Identifier,Char,,,,Identifier,Used to tie together a block of related records in a single domain for a subject or pool. This is not the treatment group number.,Perm
Findings,CL,8,CLSPID,Mass Identifier,Char,,,,Identifier,"Mass identifier such as MASS 1 or MASS A. Used when the mass was discovered during the in-life phase and assigned a mass identifier. The mass identification should be unique within the subject, regardless of mass location.",Perm
Findings,CL,9,CLTESTCD,Test Short Name,Char,,,,Topic,"Short name of the measurement, test, or examination described in CLTEST. It can be used as a column name when converting a dataset from a vertical to a horizontal format. The value in CLTESTCD cannot be longer than 8 characters, nor can it start with a number (e.g., ""1TEST"" is not valid). CLTESTCD cannot contain characters other than letters, numbers, or underscores.",Req
Findings,CL,10,CLTEST,Test Name,Char,,,,Synonym Qualifier,Long name for CLTESTCD. The value in CLTEST cannot be longer than 40 characters.,Req
Findings,CL,11,CLCAT,Category for Clinical Observations,Char,CLCAT,,,Grouping Qualifier,Used to define a category of the clinical observation.,Req
Findings,CL,12,CLSCAT,Subcategory for Clinical Observations,Char,,,,Grouping Qualifier,"Used to further categorize a group of clinical observations within a category. For example ""Whole Body Appearance"" and ""Sensory Organ Appearance"" may be subcategories within Clinical Signs.",Perm
Findings,CL,13,CLBODSYS,Body System or Organ Class,Char,BODSYS,,,Record Qualifier,Body system or organ class associated with the measurement performed.,Perm
Findings,CL,14,CLORRES,Result or Findings as Collected,Char,,,,Result Qualifier,"Text description of the finding as originally received or collected. If the examination was not performed on a particular body system, or at the subject level, then the value should be null, and NOT DONE should appear in CLSTAT.",Exp
Findings,CL,15,CLSTRESC,Standardized Result in Character Format,Char,,,,Result Qualifier,"The base finding from CLORRES without modifiers. If the examination was completed and there were no abnormal findings, the value must be NORMAL.",Exp
Findings,CL,16,CLRESCAT,Result Category,Char,,,,Variable Qualifier,Used to categorize the result of a finding post collection. Examples: Color or Facial.,Perm
Findings,CL,17,CLSTAT,Completion Status,Char,ND,,,Record Qualifier,Used to indicate examination not done or result is missing. Should be null if a result exists in CLORRES.,Perm
Findings,CL,18,CLREASND,Reason Not Done,Char,,,,Record Qualifier,"Describes why CLSTAT is NOT DONE, such as SUBJECT MORIBUND.",Perm
Findings,CL,19,CLLOC,Location of a Finding,Char,,,,Record Qualifier,Can be used to specify where a clinical sign occurred. Example: LEFT EAR for skin rash.,Exp
Findings,CL,20,CLEVAL,Evaluator,Char,,,,Record Qualifier,"Role of the person who provided the evaluation. Example: TOX TECHNICIAN, OPHTHALMOLOGIST, VETERINARIAN.",Perm
Findings,CL,21,CLSEV,Severity,Char,,,,Record Qualifier,Describes the severity or intensity of a particular finding.,Perm
Findings,CL,22,CLEXCLFL,Exclusion Flag,Char,NY,,,Record Qualifier,"Y if the result should be excluded from all calculations, otherwise null.",Perm
Findings,CL,23,CLREASEX,Reason for Exclusion,Char,,,,Record Qualifier,The reason the result should be excluded from all calculations. Used only when CLEXCLFL is Y.,Perm
Findings,CL,24,CLUSCHFL,Unscheduled Flag,Char,NY,,,Record Qualifier,"Indicates whether the timing of a performed test or observation was unscheduled. If a test or observation was performed based upon a schedule defined in the protocol, this flag should be null. Expected values are Y or null.",Perm
Findings,CL,25,VISITDY,Planned Study Day of Collection,Num,,,,Timing,Planned study day of collection. Should be an integer.,Perm
Findings,CL,26,CLDTC,Date/Time of Observation,Char,,,ISO 8601,Timing,"Date/Time of the clinical observation in ISO 8601 format. For measurements related to a continuous evaluation interval, CLDTC should be used to indicate the start date/time of that interval.",Exp
Findings,CL,27,CLENDTC,End Date/Time of Observation,Char,,,ISO 8601,Timing,"Date/Time of end of observation interval, in ISO 8601 format. Should be populated when CLDTC represents the start date/time of a continuous evaluation interval.",Perm
Findings,CL,28,CLDY,Study Day of Observation,Num,,,,Timing,"Study day of observation, in integer days. For measurements related to a continuous evaluation interval, CLDY can be used to indicate start day of that interval. The algorithm for calculations must be relative to the sponsor-defined RFSTDTC variable in the Demographics (DM) domain.",Perm
Findings,CL,29,CLENDY,Study Day of End of Observation,Num,,,,Timing,"Study day of the end of observation, in integer days. Can be populated when CLDY represents the start day of a continuous evaluation interval. The algorithm for calculations must be relative to the sponsor-defined RFSTDTC variable in the Demographics (DM) domain.",Perm
Findings,CL,30,CLNOMDY,Nominal Study Day for Tabulations,Num,,,,Timing,Nominal study day used for grouping records for observations that may occur on different days into a single reported study day. Should be an integer.,Exp
Findings,CL,31,CLNOMLBL,Label for Nominal Study Day,Char,,,,Timing,"A label for a given value of CLNOMDY as presented in the study report. Examples: ""Week 4,"" ""Day 28,"" ""Terminal Sac"".",Perm
Findings,CL,32,CLTPT,Planned Time Point Name,Char,,,,Timing,"Text description of time when an observation should be taken, as defined in the protocol. This may be represented as an elapsed time relative to a fixed reference point, such as time postdose.",Perm
Findings,CL,33,CLTPTNUM,Planned Time Point Number,Num,,,,Timing,Numerical version of CLTPT to aid in sorting.,Perm
Findings,CL,34,CLELTM,Planned Elapsed Time from Time Point Ref,Char,,,ISO 8601,Timing,"Planned Elapsed time (in ISO 8601 format) relative to a planned reference (CLTPTREF). This variable is useful where there are repetitive measures. Not a clock time or a date time variable. Represented as an ISO 8601 duration. Examples: ""- PT15M"" to represent the period of 15 minutes prior to the reference point indicated by CLTPTREF, or ""PT8H"" to represent the period of 8 hours after the reference point indicated by CLTPTREF.",Perm
Findings,CL,35,CLTPTREF,Time Point Reference,Char,,,,Timing,"Name of the fixed reference point referred to by CLELTM, if used for CLTPTNUM, and CLTPT. It is recommended that CLTPTREF be as descriptive as possible, so the reference time point can be inferred without looking at other variables. Examples: PREVIOUS DOSE, PREVIOUS MEAL.",Perm
Findings,CL,36,CLRFTDTC,Date/Time of Reference Time Point,Char,,,ISO 8601,Timing,"Date/Time of the reference time point, CLTPTREF.",Perm
Findings,DD,1,STUDYID,Study Identifier,Char,,,,Identifier,Unique identifier for a study.,Req
Findings,DD,2,DOMAIN,Domain Abbreviation,Char,,DD,,Identifier,Two-character abbreviation for the domain.,Req
Findings,DD,3,USUBJID,Unique Subject Identifier,Char,,,,Identifier,Identifier used to uniquely identify a subject across all studies for all applications or submissions involving the product.,Req
Findings,DD,4,DDSEQ,Sequence Number,Num,,,,Identifier,Sequence number given to ensure uniqueness of subject records within a domain. May be any valid number.,Req
Findings,DD,5,DDTESTCD,Death Diagnosis Short Name,Char,DDTESTCD,,,Topic,"Short name of the measurement, test, or examination described in DDTEST. It can be used as a column name when converting a dataset from a vertical to a horizontal format. The value in DDTESTCD cannot be longer than 8 characters, nor can it start with a number (e.g., ""1TEST"" is not valid). DDTESTCD cannot contain characters other than letters, numbers, or underscores.",Req
Findings,DD,6,DDTEST,Death Diagnosis Name,Char,DDTEST,,,Synonym Qualifier,Long name for DDTESTCD. The value in DDTEST cannot be longer than 40 characters.,Req
Findings,DD,7,DDORRES,Result or Findings as Collected,Char,,,,Result Qualifier,"Result of the diagnosis of the subject's cause of death, as originally received or collected.",Req
Findings,DD,8,DDSTRESC,Standardized Result in Character Format,Char,,,,Result Qualifier,"Contains the diagnosis information, copied or derived from DDORRES in a standard format. Examples: UNKNOWN, GAVAGE ERROR.",Exp
Findings,DD,9,DDRESCAT,Result Category,Char,,,,Variable Qualifier,"Used to categorize the result of a finding. Examples: TREATMENT RELATED, NONTREATMENT RELATED, UNDETERMINED, ACCIDENTAL, etc.",Perm
Findings,DD,10,DDEVAL,Evaluator,Char,,,,Record Qualifier,"Role of the person who provided the evaluation. Examples: TOX PATHOLOGIST, PEER REVIEW, SPONSOR, VETERINARIAN.",Perm
Findings,DD,11,DDDTC,Date/Time,Char,,,ISO 8601,Timing,"The date/time of subject disposition, in ISO 8601 format.",Perm
Findings,DD,12,DDDY,Study Day,Num,,,,Timing,"Study day of subject disposition, in integer days. The algorithm for calculations must be relative to the sponsor-defined RFSTDTC variable in the Demographics (DM) domain.",Perm
Findings,FW,1,STUDYID,Study Identifier,Char,,,,Identifier,Unique identifier for a study.,Req
Findings,FW,2,DOMAIN,Domain Abbreviation,Char,,FW,,Identifier,Two-character abbreviation for the domain.,Req
Findings,FW,3,USUBJID,Unique Subject Identifier,Char,,,,Identifier,Identifier used to uniquely identify a subject across all studies for all applications or submissions involving the product. Either USUBJID or POOLID must be populated.,Exp
Findings,FW,4,POOLID,Pool Identifier,Char,,,,Identifier,"Identifier used for pooling subjects to assign a single finding to multiple subjects. If POOLID is entered, POOLDEF records must exist for each subject and the USUBJID must be null. Either USUBJID or POOLID must be populated.",Perm
Findings,FW,5,FWSEQ,Sequence Number,Num,,,,Identifier,"The sequence number must be unique for each record within a USUBJID or POOLID, whichever applies for the record.",Req
Findings,FW,6,FWGRPID,Group Identifier,Char,,,,Identifier,Used to tie together a block of related records in a single domain for a subject or pool. This is not the treatment group number.,Perm
Findings,FW,7,FWTESTCD,Food/Water Consumption Short Name,Char,FWTESTCD,,,Topic,"Short name of the measurement, test, or examination described in FWTEST. It can be used as a column name when converting a dataset from a vertical to a horizontal format. The value in FWTESTCD cannot be longer than 8 characters, nor can it start with a number (e.g., ""1TEST"" is not valid). FWTESTCD cannot contain characters other than letters, numbers, or underscores. Extensible controlled values are FC, FCRELBW, WC, and WCRELBW.",Req
Findings,FW,8,FWTEST,Food/Water Consumption Name,Char,FWTEST,,,Synonym Qualifier,"Long name for FWTESTCD. The value in FWTEST cannot be longer than 40 characters. Extensible controlled values are Food Consumption, Food Consumption Relative to Body Wt, Water Consumption, Water Consumption Relative to Body Wt.",Req
Findings,FW,9,FWORRES,Result or Findings as Collected,Char,,,,Result Qualifier,Result of the measurement or finding as originally received or collected.,Exp
Findings,FW,10,FWORRESU,Unit of the Original Result,Char,UNIT,,,Variable Qualifier,The unit for the original result. The unit of the original result should be mapped to a synonymous unit on the Controlled Terminology (http://www.cdisc.org/terminology) list.,Exp
Findings,FW,11,FWSTRESC,Standardized Result in Character Format,Char,,,,Result Qualifier,"Contains the result value for all findings, copied or derived from FWORRES, in a standard format or standard units. FWSTRESC should store all results or findings in character format; if results are numeric, they should also be submitted in numeric format in FWSTRESN.",Exp
Findings,FW,12,FWSTRESN,Standardized Result in Numeric Format,Num,,,,Result Qualifier,Used for numeric results or findings in standard format; contains the numeric form of FWSTRESC. FWSTRESN should store all numeric test results or findings.,Exp
Findings,FW,13,FWSTRESU,Unit of the Standardized Result,Char,UNIT,,,Variable Qualifier,Standardized unit used for FWSTRESC and FWSTRESN.,Exp
Findings,FW,14,FWSTAT,Completion Status,Char,ND,,,Record Qualifier,Used to indicate when a test is not done or result is missing. Should be null if a result exists in FWORRES.,Perm
Findings,FW,15,FWREASND,Reason Not Done,Char,,,,Record Qualifier,"Describes why FWSTAT is NOT DONE, such as FOOD WET.",Perm
Findings,FW,16,FWEXCLFL,Exclusion Flag,Char,NY,,,Record Qualifier,"Y if the result should be excluded from all calculations, otherwise null.",Perm
Findings,FW,17,FWREASEX,Reason for Exclusion,Char,,,,Record Qualifier,The reason the result should be excluded from all calculations. Used only when FWEXCLFL is Y.,Perm
Findings,FW,18,FWDTC,Start Date/Time of Observation,Char,,,ISO 8601,Timing,Date/Time of the start of the observation in IS0 8601 format.,Exp
Findings,FW,19,FWENDTC,End Date/Time of Observation,Char,,,ISO 8601,Timing,Date/Time of the end of the observation in IS0 8601 format.,Exp
Findings,FW,20,FWDY,Study Day of Start of Observation,Num,,,,Timing,"Study day of the start of the observation, in integer days. The algorithm for calculations must be relative to the sponsor-defined RFSTDTC variable in the Demographics (DM) domain.",Perm
Findings,FW,21,FWENDY,Study Day of End of Observation,Num,,,,Timing,"Study day of the end of the observation, in integer days. The algorithm for calculations must be relative to the sponsor-defined RFSTDTC variable in the Demographics (DM) domain.",Perm
Findings,LB,1,STUDYID,Study Identifier,Char,,,,Identifier,Unique identifier for a study.,Req
Findings,LB,2,DOMAIN,Domain Abbreviation,Char,,LB,,Identifier,Two-character abbreviation for the domain.,Req
Findings,LB,3,USUBJID,Unique Subject Identifier,Char,,,,Identifier,Identifier used to uniquely identify a subject across all studies for all application or submissions involving the product. Either USUBJID or POOLID must be populated.,Exp
Findings,LB,4,POOLID,Pool Identifier,Char,,,,Identifier,"Identifier used for pooling subjects to assign a single finding to multiple subjects. If POOLID is entered, POOLDEF records must exist for each subject and the USUBJID must be null. Either USUBJID or POOLID must be populated.",Perm
Findings,LB,5,LBSEQ,Sequence Number,Num,,,,Identifier,"The sequence number must be unique for each record within a USUBJID or POOLID, whichever applies for the record.",Req
Findings,LB,6,LBGRPID,Group Identifier,Char,,,,Identifier,Used to tie together a block of related records in a single domain for a subject or pool. This is not the treatment group number.,Perm
Findings,LB,7,LBREFID,Specimen Identifier,Char,,,,Identifier,Internal or external specimen identifier. Example: 1009570101.,Perm
Findings,LB,8,LBSPID,Sponsor-Defined Identifier,Char,,,,Identifier,Sponsor-defined reference identifier. Example: Line number on the Lab page.,Perm
Findings,LB,9,LBTESTCD,Lab Test or Examination Short Name,Char,LBTESTCD,,,Topic,"Short name of the measurement, test, or examination described in LBTEST. It can be used as a column name when converting a dataset from a vertical to a horizontal format. The value in LBTESTCD cannot be longer than 8 characters, nor can it start with a number (e.g., ""1TEST"" is not valid). LBTESTCD cannot contain characters other than letters, numbers, or underscores. Examples: ALT, LDH.",Req
Findings,LB,10,LBTEST,Lab Test or Examination Name,Char,LBTEST,,,Synonym Qualifier,"Long name for LBTESTCD. The value in LBTEST cannot be longer than 40 characters. Examples: Alanine Aminotransferase, Lactate Dehydrogenase.",Req
Findings,LB,11,LBCAT,Category for Lab Test,Char,,,,Grouping Qualifier,"Used to define a category of the lab test performed. Examples: URINALYSIS, CLINICAL CHEMISTRY, HEMATOLOGY, etc.",Exp
Findings,LB,12,LBSCAT,Subcategory for Lab Test,Char,,,,Grouping Qualifier,"A further categorization of a test category. Examples: DIFFERENTIAL, LIVER FUNCTION, ELECTROLYTES.",Perm
Findings,LB,13,LBORRES,Result or Findings as Collected,Char,,,,Result Qualifier,Result of the measurement or finding as originally received or collected.,Exp
Findings,LB,14,LBORRESU,Unit of the Original Result,Char,UNIT,,,Variable Qualifier,The unit for the original result. The unit of the original result should be mapped to a synonymous unit on the Controlled Terminology (http://www.cdisc.org/terminology) list.,Exp
Findings,LB,15,LBORNRLO,Reference Range Lower Limit-Orig Unit,Char,,,,Variable Qualifier,Lower end of reference range used at the time of collection for continuous measurements in original units. Should be populated only for continuous results.,Perm
Findings,LB,16,LBORNRHI,Reference Range Upper Limit-Orig Unit,Char,,,,Variable Qualifier,Upper end of reference range used at the time of collection for continuous measurements in original units. Should be populated only for continuous results.,Perm
Findings,LB,17,LBSTRESC,Standardized Result in Character Format,Char,,,,Result Qualifier,"Contains the result value for all findings, copied or derived from LBORRES, in a standard format or standard units. LBSTRESC should store all results or findings in character format; if results are numeric, they should also be submitted in numeric format in LBSTRESN. For example, if a test has results NONE, NEG, and NEGATIVE in LBORRES and these results effectively have the same meaning, they could be represented in standard format in LBSTRESC as NEGATIVE. For other examples, see general assumptions.",Exp
Findings,LB,18,LBSTRESN,Standardized Result in Numeric Format,Num,,,,Result Qualifier,Used for numeric results or findings in standard format; contains the numeric form of LBSTRESC. LBSTRESN should store all numeric test results or findings.,Exp
Findings,LB,19,LBSTRESU,Unit of the Standardized Result,Char,UNIT,,,Variable Qualifier,Standardized unit used for LBSTRESC and LBSTRESN.,Exp
Findings,LB,20,LBSTNRLO,Reference Range Lower Limit-Std Unit,Num,,,,Variable Qualifier,Lower end of reference range for continuous measurements in standardized units. Should be populated only for continuous results.,Perm
Findings,LB,21,LBSTNRHI,Reference Range Upper Limit-Std Unit,Num,,,,Variable Qualifier,Upper end of reference range for continuous measurements in standardized units. Should be populated only for continuous results.,Perm
Findings,LB,22,LBSTNRC,Reference Range for Char Rslt-Std Unit,Char,,,,Variable Qualifier,"For normal range values that are character in ordinal scale or if categorical ranges were supplied (e.g., -1 to +1; NEGATIVE TO TRACE).",Perm
Findings,LB,23,LBNRIND,Reference Range Indicator,Char,,,,Variable Qualifier,"Indicates where value falls with respect to reference range defined by LBORNRLO and LBORNRHI, LBSTRNRLO and LBSTNRHI, or by LBSTNRC. Examples: NORMAL, ABNORMAL, HIGH, LOW. \n Sponsors should specify in the study metadata (Comments column in the data definition file) whether LBNRIND refers to the original or standard reference ranges and results. Should not be used to indicate biological significance.",Perm
Findings,LB,24,LBSTAT,Completion Status,Char,ND,,,Record Qualifier,Used to indicate when a test is not done or result is missing. Should be null if a result exists in LBORRES.,Perm
Findings,LB,25,LBREASND,Reason Not Done,Char,,,,Record Qualifier,"Describes why LBSTAT is NOT DONE, such as BROKEN EQUIPMENT or SPECIMEN LOST.",Perm
Findings,LB,26,LBNAM,Laboratory Name,Char,,,,Record Qualifier,Name or identifier of the laboratory or vendor that provided the test results.,Perm
Findings,LB,27,LBSPEC,Specimen Material Type,Char,SPEC,,,Record Qualifier,"Defines the type of specimen analyzed to obtain the measurement or finding. Examples: WHOLE BLOOD, SERUM, PLASMA, URINE, LIVER, HEART.",Exp
Findings,LB,28,LBANTREG,Anatomical Region of Specimen,Char,,,,Variable Qualifier,"Defines the specific anatomical or biological region of a tissue, organ specimen, or the region from which the specimen was obtained, such as a section or part of what is defined in the LBSPEC variable. If the anatomical region is not included in the specimen description LBSPEC, it may be included in this variable. This field can be a combination of terms where needed. This field can be null if not applicable. Examples: CORTEX, MEDULLA, MUCOSA, SEROSA, ISLET, ZONA FASICULATA, ZONA RETICULARIS, CRANIAL, MEDIAN, ACCESSORY, SPINAL, LUMBAR, FRONTAL.",Perm
Findings,LB,29,LBSPCCND,Specimen Condition,Char,,,,Record Qualifier,"Free or standardized text describing the condition of the specimen. Examples: HEMOLYZED, ICTERIC, LIPEMIC",Perm
Findings,LB,30,LBSPCUFL,Specimen Usability for the Test,Char,NY,,,Record Qualifier,Describes the usability of the specimen for the test. Should be N if the specimen is not usable; otherwise it should be null.,Perm
Findings,LB,31,LBLOC,Specimen Collection Location,Char,,,,Record Qualifier,Location relevant to the collection of specimen for the measurement.,Perm
Findings,LB,32,LBLAT,Specimen Laterality within Subject,Char,LAT,,,Variable Qualifier,"Qualifier for laterality of the specimen within the subject for paired specimens. Examples: LEFT, RIGHT, BILATERAL.",Perm
Findings,LB,33,LBDIR,Specimen Directionality within Subject,Char,DIR,,,Variable Qualifier,"Qualifier for directionality of the specimen within the subject. Examples: DORSAL, PROXIMAL.",Perm
Findings,LB,34,LBPORTOT,Portion or Totality,Char,PORTOT,,,Variable Qualifier,"Qualifier for anatomical location or specimen further detailing the portion or totality, which means arrangement of, or apportioning of. Examples: ENTIRE, SINGLE, SEGMENT, MANY.",Perm
Findings,LB,35,LBMETHOD,Method of Test or Examination,Char,,,,Record Qualifier,"Method of the test or examination. Examples: EIA (Enzyme Immunoassay), ELECTROPHORESIS, DIPSTICK.",Exp
Findings,LB,36,LBBLFL,Baseline Flag,Char,NY,,,Record Qualifier,A baseline indicator may be used to calculate differences or changes from baseline. Value should be Y or null. The baseline flag is sponsor defined.,Exp
Findings,LB,37,LBFAST,Fasting Status,Char,NY,,,Record Qualifier,Indicator used to identify fasting status. The value should be Y or null,Perm
Findings,LB,38,LBDRVFL,Derived Flag,Char,NY,,,Record Qualifier,"Used to indicate a derived record. The value should be Y or null. Records that represent the average of other records, or are not as originally received or collected are examples of records that might be derived for the submission datasets.",Perm
Findings,LB,39,LBTOX,Toxicity,Char,,,,Variable Qualifier,"Description of toxicity quantified by LBTOXGR. The sponsor is expected to provide the name and version of the scale used to map the terms, utilizing the data definition file external codelist attributes.",Perm
Findings,LB,40,LBTOXGR,Standard Toxicity Grade,Char,,,,Record Qualifier,"Records toxicity grade value using a standard toxicity scale (such as the NCI CTCAE). If value is from a numeric scale, represent only the number (e.g., ""2"" and not ""Grade 2""). The sponsor is expected to provide the name of the scale and version used to map the terms, utilizing the data definition file external codelist attributes.",Perm
Findings,LB,41,LBEXCLFL,Exclusion Flag,Char,NY,,,Record Qualifier,"""Y"" if the result should be excluded from all calculations, otherwise null.",Perm
Findings,LB,42,LBREASEX,Reason for Exclusion,Char,,,,Record Qualifier,"The reason the result should be excluded from all calculations. Used only when LBEXCLFL is ""Y"".",Perm
Findings,LB,43,LBUSCHFL,Unscheduled Flag,Char,NY,,,Record Qualifier,"Indicates whether the timing of the specimen collection was unscheduled. If a specimen collection was performed based upon a schedule defined in the protocol, this flag should be null. Expected values are ""Y"" or null.",Exp
Findings,LB,44,VISITDY,Planned Study Day of Collection,Num,,,,Timing,Planned study day of specimen collection. Should be an integer.,Perm
Findings,LB,45,LBDTC,Date/Time of Specimen Collection,Char,,,ISO 8601,Timing,"Date/Time of specimen collection, in IS0 8601 format.",Exp
Findings,LB,46,LBENDTC,End Date/Time of Specimen Collection,Char,,,ISO 8601,Timing,Date/Time of the end of specimen collection in ISO 8601 format. Should be populated only for continuous sample collection.,Perm
Findings,LB,47,LBDY,Study Day of Specimen Collection,Num,,,,Timing,"Study day of specimen collection, in integer days. The algorithm for calculations must be relative to the sponsor-defined RFSTDTC variable in the Demographics (DM) domain.",Perm
Findings,LB,48,LBENDY,Study Day of End of Specimen Collection,Num,,,,Timing,"Study day of the end of specimen collection, in integer days. The algorithm for calculations must be relative to the sponsor-defined RFSTDTC variable in the Demographics (DM) domain.",Perm
Findings,LB,49,LBNOMDY,Nominal Study Day for Tabulations,Num,,,,Timing,Nominal study day used for grouping records for specimen collections that may occur on different days into a single reported study day. Should be an integer.,Exp
Findings,LB,50,LBNOMLBL,Label for Nominal Study Day,Char,,,,Timing,"A label for a given value of LBNOMDY as presented in the study report. Examples: Week 4, Day 28, Terminal Sac.",Perm
Findings,LB,51,LBTPT,Planned Time Point Name,Char,,,,Timing,"Text Description of time when specimen should be taken. This may be represented as an elapsed time relative to a fixed reference point, such as time of last dose. See LBTPTNUM and LBTPTREF. Examples: Start, 5 min post.",Perm
Findings,LB,52,LBTPTNUM,Planned Time Point Number,Num,,,,Timing,Numerical version of LBTPT to aid in sorting.,Perm
Findings,LB,53,LBELTM,Planned Elapsed Time from Time Point Ref,Char,,,ISO 8601,Timing,"Elapsed time (in ISO 8601 format) relative to a planned fixed reference (LBTPTREF). This variable is useful where there are repetitive measures. Not a clock time or a date time variable. Represented as an ISO 8601 duration. Examples: ""- P15M"" to represent the period of 15 minutes prior to the reference point indicated by LBTPTREF, or ""P8H"" to represent the period of 8 hours after the reference point indicated by LBTPTREF.",Perm
Findings,LB,54,LBTPTREF,Time Point Reference,Char,,,,Timing,"Name of the fixed reference point referred to by LBELTM, if used for LBTPTNUM, and LBTPT. It is recommended that LBTPTREF be as descriptive as possible so the reference time point can be inferred without looking at other variables. Examples: PREVIOUS DOSE, PREVIOUS MEAL.",Perm
Findings,LB,55,LBRFTDTC,Date/Time of Reference Time Point,Char,,,ISO 8601,Timing,"Date/Time of the reference time point, LBTPTREF",Perm
Findings,MA,1,STUDYID,Study Identifier,Char,,,,Identifier,Unique identifier for a study.,Req
Findings,MA,2,DOMAIN,Domain Abbreviation,Char,,MA,,Identifier,Two-character code for the domain.,Req
Findings,MA,3,USUBJID,Unique Subject Identifier,Char,,,,Identifier,Identifier used to uniquely identify a subject across all studies for all applications or submissions involving the product.,Req
Findings,MA,4,FOCID,Focus of Study-Specific Interest,Char,,,,Identifier,"Identification of a focus of study-specific interest on or within a subject or specimen as defined in the protocol, for which a measurement, test, or examination was performed. An example could be a drug application site, e.g., ""Injection site 1,"" ""Biopsy site 1,"" ""Treated site 1."" the value in this variable should have inherent semantic value.",Perm
Findings,MA,5,MASEQ,Sequence Number,Num,,,,Identifier,Sequence number given to ensure uniqueness of subject records within a domain. May be any valid number.,Req
Findings,MA,6,MAGRPID,Group Identifier,Char,,,,Identifier,Used to tie together a block of related records in a single domain for a subject. This is not the treatment group number.,Perm
Findings,MA,7,MAREFID,Specimen Reference Identifier,Char,,,,Identifier,Internal or external specimen identifier. Example: 1009570101.,Perm
Findings,MA,8,MASPID,Mass Identifier,Char,,,,Identifier,"Mass identifier such as MASS 1 or MASS A. Used when the mass was discovered during the in-life phase or during pathology and was assigned a mass identifier. The mass identification should be unique within the subject, regardless of mass location.",Perm
Findings,MA,9,MATESTCD,Macroscopic Examination Short Name,Char,MATESTCD,,,Topic,"Short name of the measurement, test, or examination described in MATEST. It can be used as a column name when converting a dataset from a vertical to a horizontal format. The value in MATESTCD cannot be longer than 8 characters, nor can it start with a number (e.g., ""1TEST"" is not valid). MATESTCD cannot contain characters other than letters, numbers, or underscores.",Req
Findings,MA,10,MATEST,Macroscopic Examination Name,Char,MATEST,,,Synonym Qualifier,"Long name for MATESTCD. The value in MATEST cannot be longer than 40 characters. Extensible controlled values are Gross Pathological Examination, Clinical Signs Follow-up.",Req
Findings,MA,11,MABODSYS,Body System or Organ Class,Char,BODSYS,,,Record Qualifier,Body system or organ class associated with the specimen examined.,Perm
Findings,MA,12,MAORRES,Result or Findings as Collected,Char,,,,Result Qualifier,"Text description of the findings as originally received or collected, including the base gross pathological observation and any modifiers, such as severity, origin, classification, size, color, etc.",Exp
Findings,MA,13,MASTRESC,Standardized Result in Character Format,Char,,,,Result Qualifier,"Contains only the base gross pathological observation (e.g., ENLARGED) from MAORRES, without any modifiers. If the examination was completed and there were no findings, the value must be UNREMARKABLE.",Exp
Findings,MA,14,MASTAT,Completion Status,Char,ND,,,Record Qualifier,Used to indicate examination not done or result is missing. Should be null if a result exists in MAORRES.,Perm
Findings,MA,15,MAREASND,Reason Not Done,Char,,,,Record Qualifier,"Describes why MASTAT is NOT DONE. Example: Tissue not examined, Tissue Autolyzed.",Perm
Findings,MA,16,MANAM,Laboratory Name,Char,,,,Record Qualifier,Name or identifier of the laboratory or vendor that provided the test results.,Perm
Findings,MA,17,MASPEC,Specimen Material Type,Char,SPEC,,,Record Qualifier,"Defines the type of tissue, organ, or fluid examined. Examples: GLAND, ADRENAL; KIDNEY; VESSEL, LYMPHATIC. See also Assumption 4.b.",Exp
Findings,MA,18,MAANTREG,Anatomical Region of Specimen,Char,,,,Variable Qualifier,"Defines the specific anatomical or biological region of a tissue, organ specimen, or the region from which the specimen was obtained, such as a section or part of what is defined in the MASPEC variable. If the anatomical region is not included in the specimen description MASPEC, it may be included in this variable. This field can be a combination of terms where needed. This field can be null if not applicable. Examples: CORTEX, MEDULLA, MUCOSA, SEROSA, ISLET, ZONA FASICULATA, ZONA RETICULARIS, CRANIAL, MEDIAN, ACCESSORY, SPINAL, LUMBAR, FRONTAL.",Perm
Findings,MA,19,MASPCCND,Specimen Condition,Char,,,,Record Qualifier,Free or standardized text describing the condition of the specimen. Example: AUTOLYZED.,Perm
Findings,MA,20,MASPCUFL,Specimen Usability for the Test,Char,NY,,,Record Qualifier,"Describes the usability of the specimen for the test. Should be ""N"" if the specimen is not usable; otherwise it should be null.",Perm
Findings,MA,21,MALAT,Specimen Laterality within Subject,Char,LAT,,,Variable Qualifier,"Qualifier for laterality of the specimen within the subject for paired specimens. Examples: LEFT, RIGHT, BILATERAL.",Perm
Findings,MA,22,MADIR,Specimen Directionality within Subject,Char,DIR,,,Variable Qualifier,"Qualifier for directionality of the specimen within the subject. Examples: DORSAL, PROXIMAL.",Perm
Findings,MA,23,MAPORTOT,Portion or Totality,Char,PORTOT,,,Variable Qualifier,"Qualifier for anatomical location or specimen further detailing the portion or totality, which means arrangement of, or apportioning of. Examples: ENTIRE, SINGLE, SEGMENT, MANY.",Perm
Findings,MA,24,MAEVAL,Evaluator,Char,,,,Record Qualifier,"Role of the person who provided the evaluation. Used only for results that are subjective (i.e., assigned by a person or a group). Examples: PRINCIPAL PATHOLOGIST, PEER REVIEW, SPONSOR PATHOLOGIST.",Perm
Findings,MA,25,MASEV,Severity,Char,SEV,,,Record Qualifier,"Describes the severity or intensity of a particular finding. Examples: MILD, MODERATE, SEVERE.",Perm
Findings,MA,26,MADTHREL,Relationship to Death,Char,NY,,,Record Qualifier,"Describes the relationship of a particular finding to the death of a subject (""Y"" = caused death, ""N"" = did not cause death, ""U"" = unknown). May be left null if not available.",Perm
Findings,MA,27,MADTC,Date/Time,Char,,,ISO 8601,Timing,"For a specimen collected or observed post mortem, this is the date/time of subject disposition in ISO 8601 format.",Perm
Findings,MA,28,MADY,Study Day,Num,,,,Timing,"For a specimen collected or observed post mortem, this is the study day of subject disposition, in integer days. The algorithm for calculations must be relative to the sponsor-defined RFSTDTC variable in the Demographics (DM) domain.",Perm
Findings,MI,1,STUDYID,Study Identifier,Char,,,,Identifier,Unique identifier for a study.,Req
Findings,MI,2,DOMAIN,Domain Abbreviation,Char,,MI,,Identifier,Two-character abbreviation for the domain.,Req
Findings,MI,3,USUBJID,Unique Subject Identifier,Char,,,,Identifier,Identifier used to uniquely identify a subject across all studies for all applications or submissions involving the product.,Req
Findings,MI,4,FOCID,Focus of Study-Specific Interest,Char,,,,Identifier,"Identification of a focus of study-specific interest on or within a subject or specimen as defined in the protocol for which a measurement, test, or examination was performed. An example could be a drug application site, e.g., ""Injection site 1,"" ""Biopsy site 1,"" ""Treated site 1."" the value in this variable should have inherent semantic value.",Perm
Findings,MI,5,MISEQ,Sequence Number,Num,,,,Identifier,Sequence number given to ensure uniqueness of subject records within a domain. May be any valid number.,Req
Findings,MI,6,MIGRPID,Group Identifier,Char,,,,Identifier,Used to tie together a block of related records in a single domain for a subject. This is not the treatment group number.,Perm
Findings,MI,7,MIREFID,Specimen Reference Identifier,Char,,,,Identifier,Internal or external specimen identifier. Example: Specimen barcode number.,Perm
Findings,MI,8,MISPID,Mass Identifier,Char,,,,Identifier,"Mass identifier such as MASS 1 or MASS A. Used when the mass was discovered during the in-life phase or during pathology and was assigned a mass identifier. The mass identification should be unique within the subject, regardless of mass location.",Perm
Findings,MI,9,MITESTCD,Microscopic Examination Short Name,Char,MITESTCD,,,Topic,"Short name of the measurement, test, or examination described in MITEST. It can be used as a column name when converting a dataset from a vertical to a horizontal format. The value in MITESTCD cannot be longer than 8 characters, nor can it start with a number (e.g., ""1TEST"" is not valid). MITESTCD cannot contain characters other than letters, numbers, or underscores. Extensible controlled value is MIEXAM covering an assessment by microscope (e.g., light, elctron, confocal, etc).",Req
Findings,MI,10,MITEST,Microscopic Examination Name,Char,MITEST,,,Synonym Qualifier,Long name for MITESTCD. The value in MITEST cannot be longer than 40 characters. Extensible controlled value is Microscopic Examination.,Req
Findings,MI,11,MIBODSYS,Body System or Organ Class,Char,BODSYS,,,Record Qualifier,Body system or organ class associated with the specimen examined.,Perm
Findings,MI,12,MIORRES,Result or Findings as Collected,Char,,,,Result Qualifier,"Microscopic finding as originally recorded, including all modifiers.",Exp
Findings,MI,13,MISTRESC,Standardized Result in Character Format,Char,NONNEO,,,Result Qualifier,"For non-neoplastic findings, contains only the base pathological process (e.g., NECROSIS) without any modifiers such as severity, distribution, chronicity or characteristics. If the examination was completed and there were no findings, the value must be UNREMARKABLE. The base pathological process from MIORRES should be mapped to a synonymous term from the controlled list, NONNEO, where possible. \n Neoplastic findings must be populated using the NEOPLASM controlled list.",Exp
Findings,MI,14,MIRESCAT,Result Category,Char,MIRESCAT,,,Variable Qualifier,Used to categorize the result of a finding. Example: MALIGNANT for tumor findings or NON-NEOPLASTIC for pathology findings.,Perm
Findings,MI,15,MICHRON,Chronicity of Finding,Char,CHRNCTY,,,Variable Qualifier,"Describes the apparent relative duration of a particular finding. Examples: ACUTE, CHRONIC.",Exp
Findings,MI,16,MIDISTR,Distribution Pattern of Finding,Char,DSTRBN,,,Variable Qualifier,"Distribution pattern of a particular finding(s) within the examined area. Examples: DIFFUSE, FOCAL, MULTIFOCAL.",Exp
Findings,MI,17,MISTAT,Completion Status,Char,ND,,,Record Qualifier,Used to indicate a test was not done or a test was attempted but did not generate a result. Should be null or have a value of NOT DONE.,Perm
Findings,MI,18,MIREASND,Reason Not Done,Char,,,,Record Qualifier,"Describes why MISTAT is NOT DONE, such as SAMPLE AUTOLYZED or SPECIMEN LOST.",Perm
Findings,MI,19,MINAM,Laboratory Name,Char,,,,Record Qualifier,Name or identifier of the laboratory or vendor that provided the test results.,Perm
Findings,MI,20,MISPEC,Specimen Material Type,Char,SPEC,,,Record Qualifier,"Defines the type of tissue, orgain, or fluid specimen examined. Examples: LIVER, HEART, BONE MARROW.",Req
Findings,MI,21,MIANTREG,Anatomical Region of Specimen,Char,,,,Variable Qualifier,"The protocol-defined subregion of the specimen examined. Example: Cortex or Medulla (if the MISPEC is, for example, GLAND, ADRENAL).",Perm
Findings,MI,22,MISPCCND,Specimen Condition,Char,,,,Record Qualifier,Free or standardized text describing the condition of the specimen. Example: AUTOLYZED.,Exp
Findings,MI,23,MISPCUFL,Specimen Usability for the Test,Char,NY,,,Record Qualifier,"Describes the usability of the specimen for the test. Should be ""N"" if the specimen is not usable; otherwise it should be null.",Exp
Findings,MI,24,MILAT,Specimen Laterality within Subject,Char,LAT,,,Variable Qualifier,"Qualifier for laterality of the specimen within the subject for paired specimens. Examples: LEFT, RIGHT, BILATERAL.",Perm
Findings,MI,25,MIDIR,Specimen Directionality within Subject,Char,DIR,,,Variable Qualifier,"Qualifier for directionality of the specimen within the subject. Examples: DORSAL, PROXIMAL.",Perm
Findings,MI,26,MIMETHOD,Method of Test or Examination,Char,,,,Record Qualifier,Method of the test or examination. This could be different types of staining used for the slides whenever appropriate. Example: H&E.,Perm
Findings,MI,27,MIEVAL,Evaluator,Char,,,,Record Qualifier,"Role of the person who provided the evaluation. Examples: TOX PATHOLOGIST, PEER REVIEW, SPONSOR PATHOLOGIST.",Perm
Findings,MI,28,MISEV,Severity,Char,SEV,,,Record Qualifier,Describes the severity of a particular finding.,Exp
Findings,MI,29,MIDTHREL,Relationship to Death,Char,NY,,,Record Qualifier,"Describes the relationship of a particular finding to the death of a subject (""Y"" = caused death, ""N"" = did not cause death, ""U"" = unknown). May be left null if not available.",Perm
Findings,MI,30,MIDTC,Date/Time,Char,,,ISO 8601,Timing,"For a specimen collected or observed post mortem, this is the date/time of subject disposition, in ISO 8601 format.",Perm
Findings,MI,31,MIDY,Study Day,Num,,,,Timing,"For a specimen collected or observed post mortem, this is the study day of subject disposition, in integer days. The algorithm for calculations must be relative to the sponsor-defined RFSTDTC variable in the Demographics (DM) domain.",Perm
Findings,OM,1,STUDYID,Study Identifier,Char,,,,Identifier,Unique identifier for a study.,Req
Findings,OM,2,DOMAIN,Domain Abbreviation,Char,,OM,,Identifier,Two-character abbreviation for the domain.,Req
Findings,OM,3,USUBJID,Unique Subject Identifier,Char,,,,Identifier,Identifier used to uniquely identify a subject across all studies for all applications or submissions involving the product.,Req
Findings,OM,4,OMSEQ,Sequence Number,Num,,,,Identifier,Sequence number given to ensure uniqueness of subject records within a domain. May be any valid number.,Req
Findings,OM,5,OMTESTCD,Test Short Name,Char,OMTESTCD,,,Topic,"Short name of the measurement, test, or examination described in OMTEST. It can be used as a column name when converting a dataset from a vertical to a horizontal format. The value in OMTESTCD cannot be longer than 8 characters, nor can it start with a number (e.g., ""1TEST"" is not valid). OMTESTCD cannot contain characters other than letters, numbers, or underscores.",Req
Findings,OM,6,OMTEST,Test Name,Char,OMTEST,,,Synonym Qualifier,Long name for OMTESTCD. The value in OMTEST cannot be longer than 40 characters.,Req
Findings,OM,7,OMORRES,Result or Findings as Collected,Char,,,,Result Qualifier,Result of the measurement or finding as originally received or collected.,Exp
Findings,OM,8,OMORRESU,Unit of the Original Result,Char,UNIT,,,Variable Qualifier,The unit for the original result. The unit of the original result should be mapped to a synonymous unit on the Controlled Terminology (http://www.cdisc.org/terminology) list.,Exp
Findings,OM,9,OMSTRESC,Standardized Result in Character Format,Char,,,,Result Qualifier,"Contains the result value for all findings, copied or derived from OMORRES in a standard format or in standard units. OMSTRESC should store all results or findings in character format; if results are numeric, they should also be submitted in numeric format in OMSTRESN.",Exp
Findings,OM,10,OMSTRESN,Standardized Result in Numeric Format,Num,,,,Result Qualifier,Used for numeric results or findings in standard format; contains the numeric form of OMSTRESC. OMSTRESN should store all numeric test results or findings.,Exp
Findings,OM,11,OMSTRESU,Unit of the Standardized Result,Char,UNIT,,,Variable Qualifier,Standardized unit used for OMSTRESC and OMSTRESN.,Exp
Findings,OM,12,OMSTAT,Completion Status,Char,ND,,,Record Qualifier,Used to indicate when a test is not done or result is missing. Should be null if a result exists in OMORRES.,Perm
Findings,OM,13,OMREASND,Reason Not Done,Char,,,,Record Qualifier,"Describes why OMSTAT is NOT DONE, such as BROKEN EQUIPMENT or TECHNICIAN OVERSIGHT.",Perm
Findings,OM,14,OMSPEC,Specimen Material Type,Char,SPEC,,,Record Qualifier,"Defines the type of tissue, organ, or fluid specimen used as the object for the finding. Examples: GLAND, ADRENAL, KIDNEY, VESSEL, LYMPHATIC.",Req
Findings,OM,15,OMANTREG,Anatomical Region of Specimen,Char,,,,Variable Qualifier,"Defines the specific anatomical or biological region of a tissue, organ specimen, or the region from which the specimen was obtained, such as a section or part of what is defined in the OMSPEC variable. If the anatomical region is not included in the specimen description OMSPEC, it may be included in this variable. This field can be a combination of terms where needed. This field can be blank if not applicable. Examples: CORTEX, MEDULLA, MUCOSA, SEROSA, ISLET, ZONA FASICULATA, ZONA RETICULARIS, CRANIAL, MEDIAN, ACCESSORY, SPINAL, LUMBAR, FRONTAL.",Perm
Findings,OM,16,OMSPCCND,Specimen Condition,Char,,,,Record Qualifier,Free or standardized text describing the condition of the specimen. Example: FIXED.,Perm
Findings,OM,17,OMSPCUFL,Specimen Usability for the Test,Char,NY,,,Record Qualifier,"Describes the usability of the specimen for the test. Should be ""N"" if the specimen is not usable; otherwise it should be null.",Perm
Findings,OM,18,OMLAT,Specimen Laterality within Subject,Char,LAT,,,Variable Qualifier,"Qualifier for laterality of the specimen within the subject for paired specimens. Examples: LEFT, RIGHT, BILATERAL.",Perm
Findings,OM,19,OMDIR,Specimen Directionality within Subject,Char,DIR,,,Variable Qualifier,"Qualifier for directionality of the specimen within the subject. Examples: DORSAL, PROXIMAL.",Perm
Findings,OM,20,OMPORTOT,Portion or Totality,Char,PORTOT,,,Variable Qualifier,"Qualifier for anatomical location or specimen further detailing the portion or totality, which means arrangement of, or apportioning of. Examples: ENTIRE, SINGLE, SEGMENT, MANY.",Perm
Findings,OM,21,OMEXCLFL,Exclusion Flag,Char,NY,,,Record Qualifier,"""Y"" if the result should be excluded from all calculations, otherwise null.",Perm
Findings,OM,22,OMREASEX,Reason for Exclusion,Char,,,,Record Qualifier,"The reason the result should be excluded from all calculations. Used only when OMEXCLFL is ""Y"".",Perm
Findings,OM,23,OMDTC,Date/Time Organ Measured,Char,,,ISO 8601,Timing,"Date/Time of specimen/tissue weighing, in ISO 8601 format.",Exp
Findings,OM,24,OMDY,Study Day of Measurement,Num,,,,Timing,"Study day of specimen/tissue weighing, in integer days. The algorithm for calculations must be relative to the sponsor-defined RFSTDTC variable in the Demographics (DM) domain.",Perm
Findings,OM,25,OMNOMDY,Nominal Study Day for Tabulations,Num,,,,Timing,Nominal study day: Used for grouping records for observations that may occur on different days into a single reported study day. Should be an integer.,Exp
Findings,OM,26,OMNOMLBL,Label for Nominal Study Day,Char,,,,Timing,"A label for a given value of OMNOMDY as presented in the study report (examples: ""Week 4,"" ""Day 28,"" ""Terminal Sac"").",Perm
Findings,PM,1,STUDYID,Study Identifier,Char,,,,Identifier,Unique identifier for a study.,Req
Findings,PM,2,DOMAIN,Domain Abbreviation,Char,,PM,,Identifier,Two-character abbreviation for the domain.,Req
Findings,PM,3,USUBJID,Unique Subject Identifier,Char,,,,Identifier,Identifier used to uniquely identify a subject across all studies for all applications or submissions involving the product.,Req
Findings,PM,4,PMSEQ,Sequence Number,Num,,,,Identifier,Sequence number given to ensure uniqueness of subject records within a domain. May be any valid number.,Req
Findings,PM,5,PMGRPID,Group Identifier,Char,,,,Identifier,Used to tie together a block of related records in a single domain for a subject. This is not the treatment group number.,Perm
Findings,PM,6,PMSPID,Mass Identifier,Char,,,,Identifier,"Mass identifier such as MASS 1 or MASS A. Used when the mass was discovered during the in-life phase or during pathology and was assigned a mass identifier. The mass identification should be unique within the subject, regardless of mass location.",Exp
Findings,PM,7,PMTESTCD,Test Short Name,Char,PHSPRPCD,,,Topic,"Short name of the measurement, test, or examination described in PMTEST. It can be used as a column name when converting a dataset from a vertical to a horizontal format. The value in PMTESTCD cannot be longer than 8 characters, nor can it start with a number (e.g., ""1TEST"" is not valid). PMTESTCD cannot contain characters other than letters, numbers, or underscores.",Req
Findings,PM,8,PMTEST,Test Name,Char,PHSPRP,,,Synonym Qualifier,Long name for PMTESTCD. The value in PMTEST cannot be longer than 40 characters.,Req
Findings,PM,9,PMORRES,Result or Findings as Collected,Char,,,,Variable Qualifier,"Text description of findings as originally received or collected. If the examination was not performed, then the value should be null, and NOT DONE should appear in PMSTAT.",Exp
Findings,PM,10,PMORRESU,Unit of the Original Result,Char,UNIT,,,Variable Qualifier,"Units for PMORRES, if available (e.g., for length, width, or depth findings). The unit of the original result should be mapped to a synonymous unit on the Controlled Terminology list.",Exp
Findings,PM,11,PMSTRESC,Standardized Result in Character Format,Char,,,,Result Qualifier,"Contains the result value for all findings, copied, or derived from PMORRES in a standard format or standard units. PMSTRESC should store all results or findings (without location of finding) in character format; if results are numeric, they should also be submitted in numeric format in PMSTRESN.",Exp
Findings,PM,12,PMSTRESN,Standardized Result in Numeric Format,Num,,,,Result Qualifier,Used for numeric results or findings in standard format; contains the numeric form of PMSTRESC. PMSTRESN should store all numeric test results or findings.,Exp
Findings,PM,13,PMSTRESU,Unit of the Standardized Result,Char,UNIT,,,Variable Qualifier,Standardized unit used for PMSTRESC and PMSTRESN.,Exp
Findings,PM,14,PMSTAT,Completion Status,Char,ND,,,Record Qualifier,Used to indicate when a test is not done or result is missing. Should be null if a result exists in PMORRES.,Perm
Findings,PM,15,PMREASND,Reason Not Done,Char,,,,Record Qualifier,"Describes why PMSTAT is NOT DONE, such as MEASUREMENT IMPOSSIBLE DUE TO EXCESSIVE ULCERATION OF MASS.",Perm
Findings,PM,16,PMLOC,Location of a Finding,Char,,,,Record Qualifier,Specifies the location of the palpable mass finding. Example: LEFT SHOULDER.,Exp
Findings,PM,17,PMEVAL,Evaluator,Char,,,,Record Qualifier,Role of the person who provided the evaluation. Example: TECHNICIAN.,Perm
Findings,PM,18,PMUSCHFL,Unscheduled Flag,Char,NY,,,Record Qualifier,"Indicates whether the timing of a performed test or observation was unscheduled. If a test or observation was performed based upon a schedule defined in the protocol, this flag should be null. Expected values are ""Y"" or null.",Perm
Findings,PM,19,VISITDY,Planned Study Day of Collection,Num,,,,Timing,Planned study day of collection. Should be an integer.,Perm
Findings,PM,20,PMDTC,Date/Time of Observation,Char,,,ISO 8601,Timing,Date/Time of the observation in ISO 8601 format.,Exp
Findings,PM,21,PMDY,Study Day of Observation,Num,,,,Timing,"Study day of the observation, measured as integer days. The algorithm for calculations must be relative to the sponsor-defined RFSTDTC variable in the Demographics (DM) domain.",Perm
Findings,PM,22,PMNOMDY,Nominal Study Day for Tabulations,Num,,,,Timing,Nominal study day used for grouping records for observations that may occur on different days into a single reported study day. Should be an integer.,Exp
Findings,PM,23,PMNOMLBL,Label for Nominal Study Day,Char,,,,Timing,"A label for a given value of PMNOMDY as presented in the study report. Examples: ""Week 4,"" ""Day 28,"" ""Terminal Sac"".",Perm
Findings,PC,1,STUDYID,Study Identifier,Char,,,,Identifier,Unique identifier for a study.,Req
Findings,PC,2,DOMAIN,Domain Abbreviation,Char,,PC,,Identifier,Two-character abbreviation for the domain.,Req
Findings,PC,3,USUBJID,Unique Subject Identifier,Char,,,,Identifier,Identifier used to uniquely identify a subject across all studies for all applications or submissions involving the product. Either USUBJID or POOLID must be populated.,Exp
Findings,PC,4,POOLID,Pool Identifier,Char,,,,Identifier,"Identifier used for pooling subjects to assign a single finding to multiple subjects. If POOLID is entered, POOLDEF records must exist for each subject and the USUBJID must be null. Either USUBJID or POOLID must be populated.",Perm
Findings,PC,5,PCSEQ,Sequence Number,Num,,,,Identifier,"The sequence number must be unique for each record within a USUBJID or POOLID, whichever applies for the record.",Req
Findings,PC,6,PCGRPID,Group Identifier,Char,,,,Identifier,Used to tie together a block of related records in a single domain for a subject or pool. This is not the treatment group number.,Perm
Findings,PC,7,PCREFID,Sample Identifier,Char,,,,Identifier,Internal or external specimen identifier. Example: 1009570101.,Perm
Findings,PC,8,PCSPID,Sponsor-Defined Identifier,Char,,,,Identifier,Sponsor-defined reference identifier.,Perm
Findings,PC,9,PCTESTCD,Test Short Name,Char,,,,Topic,"Short name of the analyte (or measurement) described in PCTEST. It can be used as a column name when converting a dataset from a vertical to a horizontal format. The value in PCTESTCD cannot be longer than 8 characters, nor can it start with a number (e.g., ""1TEST"" is not valid). PCTESTCD cannot contain characters other than letters, numbers, or underscores.",Req
Findings,PC,10,PCTEST,Test Name,Char,,,,Synonym Qualifier,"Long name for PCTESTCD, such as the name of the analyte (or measurement). The value in PCTEST cannot be longer than 40 characters.",Req
Findings,PC,11,PCCAT,Test Category,Char,,,,Grouping Qualifier,"Used to define a category of the pharmacokinetic test performed. Examples: ANALYTE, METABOLITE, SPECIMEN PROPERTY.",Perm
Findings,PC,12,PCSCAT,Test Subcategory,Char,,,,Grouping Qualifier,A further categorization of a test category.,Perm
Findings,PC,13,PCORRES,Result or Findings as Collected,Char,,,,Result Qualifier,Result of the measurement or finding as originally received or collected.,Exp
Findings,PC,14,PCORRESU,Unit of the Original Result,Char,PKUNIT,,,Variable Qualifier,The unit for the original result. The unit of the original result should be mapped to a synonymous unit on the Controlled Terminology (http://www.cdisc.org/terminology) list.,Exp
Findings,PC,15,PCSTRESC,Standardized Result in Character Format,Char,,,,Result Qualifier,"Contains the result value for all findings, copied or derived from PCORRES in a standard format or standard units. PCSTRESC should store all results or findings in character format; if results are numeric, they should also be submitted in numeric format in PCSTRESN. Results beyond limits of quantitation should be represented with the term ""BLQ"" for results below the limit and ""ALQ"" for results above the limit.",Exp
Findings,PC,16,PCSTRESN,Standardized Result in Numeric Format,Num,,,,Result Qualifier,"Used for numeric results or findings in standard format; contains the numeric form of PCSTRESC. PCSTRESN should store all numeric test results or findings. For results beyond limits of quantitation, this variable should be left null (e.g., if PCSTRESC is ""BLQ"", PCSTRESN would be null).",Exp
Findings,PC,17,PCSTRESU,Unit of the Standardized Result,Char,PKUNIT,,,Variable Qualifier,Standardized unit used for PCSTRESC and PCSTRESN.,Exp
Findings,PC,18,PCSTAT,Completion Status,Char,ND,,,Record Qualifier,Used to indicate when a test is not done or result is missing. Should be null if a result exists in PCORRES.,Perm
Findings,PC,19,PCREASND,Reason Not Done,Char,,,,Record Qualifier,"Describes why PCSTAT is NOT DONE, such as SPECIMEN LOST.",Perm
Findings,PC,20,PCNAM,Laboratory Name,Char,,,,Record Qualifier,Name or identifier of the laboratory or vendor providing the test results.,Perm
Findings,PC,21,PCSPEC,Specimen Material Type,Char,SPEC,,,Record Qualifier,"Defines the type of specimen used for a measurement. Examples: SERUM, PLASMA, URINE.",Req
Findings,PC,22,PCSPCCND,Specimen Condition,Char,,,,Record Qualifier,"Free or standardized text describing the condition of the specimen. Examples: HEMOLYZED, ICTERIC, LIPEMIC.",Perm
Findings,PC,23,PCSPCUFL,Specimen Usability for the Test,Char,NY,,,Record Qualifier,"Describes the usability of the specimen for the test. Should be ""N"" if the specimen is not usable; otherwise it should be null.",Perm
Findings,PC,24,PCMETHOD,Method of Test or Examination,Char,,,,Record Qualifier,"Method of the test or examination. Examples: HPLC/MS, ELISA. This should contain sufficient information and granularity to allow differentiation of various methods that might have been used within a study.",Perm
Findings,PC,25,PCBLFL,Baseline Flag,Char,NY,,,Record Qualifier,"A baseline indicator may be used to calculate differences or changes from baseline. Value should be ""Y"" or null. The baseline flag is sponsor-defined.",Perm
Findings,PC,26,PCFAST,Fasting Status,Char,NY,,,Record Qualifier,"Indicator used to identify fasting status. The value should be ""Y"" or null.",Perm
Findings,PC,27,PCDRVFL,Derived Flag,Char,NY,,,Record Qualifier,"Used to indicate a derived record. The value should be ""Y"" or null. Records that represent the average of other records are examples of records that would be derived for the submission datasets.",Perm
Findings,PC,28,PCLLOQ,Lower Limit of Quantitation,Num,,,,Variable Qualifier,Indicates the lower limit of quantitation for an assay. Units should be those used in PCSTRESU.,Exp
Findings,PC,29,PCEXCLFL,Exclusion Flag,Char,NY,,,Record Qualifier,"""Y"" if the result should be excluded from all calculations, otherwise null.",Perm
Findings,PC,30,PCREASEX,Reason for Exclusion,Char,,,,Record Qualifier,"The reason the result should be excluded from all calculations. Used only when PCEXCLFL is ""Y"".",Perm
Findings,PC,31,PCUSCHFL,Unscheduled Flag,Char,NY,,,Record Qualifier,"Indicates whether the timing of the specimen collection was unscheduled. If a specimen collection was performed based upon a schedule defined in the protocol, this flag should be null. Expected values are ""Y"" or null.",Perm
Findings,PC,32,VISITDY,Planned Study Day of Collection,Num,,,,Timing,Planned day of collection. Should be an integer.,Perm
Findings,PC,33,PCDTC,Date/Time of Specimen Collection,Char,,,ISO 8601,Timing,"Date/Time of specimen collection, in ISO 8601 format. If there is no end time, this will be the collection time.",Perm
Findings,PC,34,PCENDTC,End Date/Time of Specimen Collection,Char,,,ISO 8601,Timing,"End date/time of specimen collection, in ISO 8601 format. If there is no end time, the collection time should be represented in PCDTC, and PCENDTC should be null.",Perm
Findings,PC,35,PCDY,Study Day of Specimen Collection,Num,,,,Timing,"Study day of specimen collection, in integer days. The algorithm for calculations must be relative to the sponsor-defined RFSTDTC variable in Demographics (DM) domain.",Perm
Findings,PC,36,PCENDY,Study Day of End of Specimen Collection,Num,,,,Timing,"Study day of the end of specimen collection, in integer days. The algorithm for calculations must be relative to the sponsor-defined RFSTDTC variable in DM domain.",Perm
Findings,PC,37,PCNOMDY,Nominal Study Day for Tabulations,Num,,,,Timing,Nominal study day used for grouping records for specimen collections that may occur on different days into a single reported study day. Should be an integer.,Exp
Findings,PC,38,PCNOMLBL,Label for Nominal Study Day,Char,,,,Timing,"A label for a given value of PCNOMDY as presented in the study report. Examples: ""Week 4"", ""Day 28"".",Perm
Findings,PC,39,PCTPT,Planned Time Point Name,Char,,,,Timing,"Text description of time when specimen should be taken. \n Note: This may be represented as an elapsed time relative to a fixed reference point, such as time of last dose. See PCTPTNUM and PCTPTREF. Examples: Start, 5 min post.",Perm
Findings,PC,40,PCTPTNUM,Planned Time Point Number,Num,,,,Timing,Numerical version of PCTPT to aid in sorting.,Perm
Findings,PC,41,PCELTM,Planned Elapsed Time from Time Point Ref,Char,,,ISO 8601,Timing,"Planned elapsed time (in ISO 8601 format) relative to a planned fixed reference (PCTPTREF) such as ""Day 1, Dose 1"". This variable is useful where there are repetitive measures. Not a clock time or a date time variable. Represented as an ISO 8601 duration. Examples: ""PT0H"" to represent any predose values; ""PT8H"" to represent the period of 8 hours after the reference point indicated by PCTPTREF.",Exp
Findings,PC,42,PCTPTREF,Time Point Reference,Char,,,,Timing,"Name of the fixed reference point referred to by PCELTM, if used for PCTPTNUM, and PCTPT. It is recommended that PCTPTREF be as descriptive as possible so the reference time point can be inferred without looking at other variables. Example: ""Day 1, Dose 1"".",Exp
Findings,PC,43,PCRFTDTC,Date/Time of Reference Point,Char,,,ISO 8601,Timing,"Date/Time of the reference time point, PCTPTREF.",Exp
Findings,PC,44,PCEVLINT,Evaluation Interval,Char,,,ISO 8601,Timing,"Planned evaluation interval associated with a PCTEST record in ISO 8601 format. Example: ""-P2H"" to represent a planned interval of collection of 2 hours prior to the time point described in PCTPT.",Perm
Findings,PP,1,STUDYID,Study Identifier,Char,,,,Identifier,Unique identifier for a study.,Req
Findings,PP,2,DOMAIN,Domain Abbreviation,Char,,PP,,Identifier,Two-character abbreviation for the domain.,Req
Findings,PP,3,USUBJID,Unique Subject Identifier,Char,,,,Identifier,Identifier used to uniquely identify a subject across all studies for all applications or submissions involving the product. Either USUBJID or POOLID must be populated.,Exp
Findings,PP,4,POOLID,Pool Identifier,Char,,,,Identifier,"Identifier used for pooling subjects to assign a single finding to multiple subjects. If POOLID is entered, POOLDEF records must exist for each subject and the USUBJID must be null. Either USUBJID or POOLID must be populated.",Perm
Findings,PP,5,PPSEQ,Sequence Number,Num,,,,Identifier,"The sequence number must be unique for each record within a USUBJID or POOLID, whichever applies for the record.",Req
Findings,PP,6,PPGRPID,Group Identifier,Char,,,,Identifier,Used to tie together a block of related records in a single domain for a subject or pool. This is not the treatment group number.,Perm
Findings,PP,7,PPTESTCD,Parameter Short Name,Char,PKPARMCD,,,Topic,"Short name of the measurement, test, or examination described in PPTEST. It can be used as a column name when converting a dataset from a vertical to a horizontal format. The value in PPTESTCD cannot be longer than 8 characters, nor can it start with a number (e.g., ""1TEST"" is not valid). PPTESTCD cannot contain characters other than letters, numbers, or underscores. Examples: AUCINT, TMAX, CMAX.",Req
Findings,PP,8,PPTEST,Parameter Name,Char,PKPARM,,,Synonym Qualifier,"Long name for PPTESTCD. The value in PPTEST cannot be longer than 40 characters. Examples: AUC from T1 to T2, Time of CMAX, Max Conc.",Req
Findings,PP,9,PPCAT,Parameter Category,Char,,,,Grouping Qualifier,Used to define a category of parameters associated with a specific analyte. This must be the analyte in PCTEST whose profile the parameter is associated with.,Exp
Findings,PP,10,PPSCAT,Parameter Subcategory,Char,,,,Grouping Qualifier,"Categorization of the model type used to calculate the pharmacokinetic parameters. Examples include COMPARTMENTAL, NON-COMPARTMENTAL.",Perm
Findings,PP,11,PPORRES,Result or Findings as Collected,Char,,,,Result Qualifier,Result of the measurement or finding as calculated.,Exp
Findings,PP,12,PPORRESU,Unit of the Original Result,Char,PKUNIT,,,Variable Qualifier,The unit for the original result. The unit of the original result should be mapped to a synonymous unit on the CDISC Controlled Terminology (http://www.cdisc.org/terminology) list.,Exp
Findings,PP,13,PPSTRESC,Standardized Result in Character Format,Char,,,,Result Qualifier,"Contains the result value for all findings, copied or derived from PPORRES in a standard format or standard units. PPSTRESC should store all results or findings in character format; if results are numeric, they should also be stored in numeric format in PPSTRESN. For example, if a test has results NONE, NEG, and NEGATIVE in PPORRES and these results effectively have the same meaning, they could be represented in standard format in PPSTRESC as NEGATIVE. For other examples, see general assumptions.",Exp
Findings,PP,14,PPSTRESN,Standardized Result in Numeric Format,Num,,,,Result Qualifier,Used for numeric results or findings in standard format; contains the numeric form of PPSTRESC. PPSTRESN should store all numeric test results or findings.,Exp
Findings,PP,15,PPSTRESU,Unit of the Standardized Result,Char,PKUNIT,,,Variable Qualifier,Standardized unit used for PPSTRESC and PPSTRESN.,Exp
Findings,PP,16,PPSTAT,Completion Status,Char,ND,,,Record Qualifier,Used to indicate that a parameter was not calculated. Should be null if a result exists in PPORRES.,Perm
Findings,PP,17,PPREASND,Reason Not Done,Char,,,,Record Qualifier,"Describes why a parameter was not performed, such as INSUFFICIENT DATA. Used in conjunction with PPSTAT when value is NOT DONE.",Perm
Findings,PP,18,PPSPEC,Specimen Material Type,Char,SPEC,,,Record Qualifier,"Defines the type of specimen used for a measurement. Examples: SERUM, PLASMA, URINE. \n If multiple specimen types are used for a calculation (e.g., serum and urine for creatinine clearance), refer to Section 4.3.6.2 for guidance on how to populate.",Exp
Findings,PP,19,VISITDY,Planned Study Day of Collection,Num,,,,Timing,Planned study day of collection. Should be an integer.,Perm
Findings,PP,20,PPNOMDY,Nominal Study Day for Tabulations,Num,,,,Timing,Nominal study day used for grouping records for specimen collections that may occur on different days into a single reported study day. Should be an integer.,Exp
Findings,PP,21,PPNOMLBL,Label for Nominal Study Day,Char,,,,Timing,"A label for a given value of PPNOMDY as presented in the study report. Examples: ""Week 4"", ""Day 28"".",Perm
Findings,PP,22,PPTPTREF,Time Point Reference,Char,,,,Timing,Name of the fixed reference point used as a basis for PPRFTDTC.,Exp
Findings,PP,23,PPRFTDTC,Date/Time of Reference Point,Char,,,ISO 8601,Timing,"Date/Time of the reference time point, PPTPTREF. The values in PPRFTDTC should be the same as that in PCRFTDTC for related records.",Exp
Findings,PP,24,PPSTINT,Start of Assessment Interval,Char,,,ISO 8601,Timing,"Start of the assessment interval relative to Time Point Reference (PPTPTREF) in ISO 8601 duration format. Example: When the area under the curve is calculated from 12 to 24 hours (PPTESTCD=AUCT1T2), the value would be PT12H.",Perm
Findings,PP,25,PPENINT,End of Assessment Interval,Char,,,ISO 8601,Timing,"End of the assessment interval relative to Time Point Reference (PPTPTREF) in ISO 8601 duration format. Example: When the area under the curve is calculated from 12 to 24 hours (PPTESTCD=AUCT1T2), the value would be PT24H.",Perm
Findings,SC,1,STUDYID,Study Identifier,Char,,,,Identifier,Unique identifier for a study.,Req
Findings,SC,2,DOMAIN,Domain Abbreviation,Char,,SC,,Identifier,Two-character abbreviation for the domain.,Req
Findings,SC,3,USUBJID,Unique Subject Identifier,Char,,,,Identifier,Identifier used to uniquely identify a subject across a study for all applications or submissions involving the product.,Req
Findings,SC,4,SCSEQ,Sequence Number,Num,,,,Identifier,Sequence number given to ensure uniqueness of subject records within a domain. May be any valid number.,Req
Findings,SC,5,SCGRPID,Group Identifier,Char,,,,Identifier,Used to tie together a block of related records in a single domain for a subject. This is not the treatment group number.,Perm
Findings,SC,6,SCTESTCD,Subject Characteristic Short Name,Char,SBCCDSND,,,Topic,"Short name of the measurement, test, or examination described in SCTEST. It can be used as a column name when converting a dataset from a vertical to a horizontal format. The value in SCTESTCD cannot be longer than 8 characters, nor can it start with a number (e.g., ""1TEST"" is not valid). SCTESTCD cannot contain characters other than letters, numbers, or underscores. Some extensible controlled values are: SPLRNAM, SPLRLOC, HAIRCOLR.",Req
Findings,SC,7,SCTEST,Subject Characteristic,Char,SBCSND,,,Synonym Qualifier,"Long name for SCTESTCD. The value in SCTEST cannot be longer than 40 characters. Examples: Test Subject Supplier, Test Subject Supplier Site, and Hair Coat Color.",Req
Findings,SC,8,SCORRES,Result or Findings as Collected,Char,,,,Result Qualifier,Result of the subject characteristic as originally received or collected.,Exp
Findings,SC,9,SCORRESU,Unit of the Original Result,Char,UNIT,,,Variable Qualifier,The unit for the original result. The unit of the original result should be mapped to a synonymous unit on the Controlled Terminology (http://www.cdisc.org/terminology) list.,Perm
Findings,SC,10,SCSTRESC,Standardized Result in Character Format,Char,,,,Result Qualifier,"Contains the result value for all findings, copied or derived from SCORRES in a standard format or standard units. SCSTRESC should store all results or findings in character format; if results are numeric, they should also be stored in numeric format in SCSTRESN. For example, if a test has results NONE, NEG, and NEGATIVE in SCORRES, these results effectively have the same meaning. In this case, they could be represented in standard format in SCSTRESC with a single term NEGATIVE.",Exp
Findings,SC,11,SCSTRESN,Standardized Result in Numeric Format,Num,,,,Result Qualifier,Used for numeric results or findings in standard format; contains the numeric form of SCSTRESC. SCSTRESN should store all numeric test results or findings.,Perm
Findings,SC,12,SCSTRESU,Unit of the Standardized Result,Char,UNIT,,,Variable Qualifier,Standardized unit used for SCSTRESC and SCSTRESN.,Perm
Findings,SC,13,SCDTC,Date/Time of Collection,Char,,,ISO 8601,Timing,"Date/Time of collection of the subject characteristic information, in ISO 8601 format.",Perm
Findings,SC,14,SCDY,Study Day of Collection,Num,,,,Timing,"Study day of collection, in integer days. The algorithm for calculations must be relative to the sponsor-defined RFSTDTC variable in the Demographics (DM) domain.",Perm
Findings,TF,1,STUDYID,Study Identifier,Char,,,,Identifier,Unique identifier for a study.,Req
Findings,TF,2,DOMAIN,Domain Abbreviation,Char,,TF,,Identifier,Two-character abbreviation for the domain.,Req
Findings,TF,3,USUBJID,Unique Subject Identifier,Char,,,,Identifier,Identifier used to uniquely identify a subject across all studies for all applications or submissions involving the product within the submission,Req
Findings,TF,4,TFSEQ,Sequence Number,Num,,,,Identifier,Sequence number given to ensure uniqueness of subject records within a domain. May be any valid number.,Req
Findings,TF,5,TFGRPID,Group Identifier,Char,,,,Identifier,Used to tie together a block of related records in a single domain for a subject. This is not the treatment group number.,Perm
Findings,TF,6,TFREFID,Specimen Identifier,Char,,,,Identifier,Internal or external specimen identifier. Example: Specimen barcode number.,Perm
Findings,TF,7,TFSPID,Mass Identifier,Char,,,,Identifier,"Mass identifier such as MASS 1 or MASS A. Used when the mass was discovered during the in-life phase or during pathology and was assigned a mass identifier. The mass identification should be unique within the subject, regardless of mass location.",Exp
Findings,TF,8,TFTESTCD,Tumor Examination Short Name,Char,TFTESTCD,,,Topic,"Short name of the measurement, test, or examination described in TFTEST. It can be used as a column name when converting a dataset from a vertical to a horizontal format. The value in TFTESTCD cannot be longer than 8 characters, nor can it start with a number (e.g., ""1TEST"" is not valid). TFTESTCD cannot contain characters other than letters, numbers, or underscores. Example: TUMEX.",Req
Findings,TF,9,TFTEST,Tumor Examination Name,Char,TFTEST,,,Synonym Qualifier,Long name for TFTESTCD. The value in TFTEST cannot be longer than 40 characters. Example: Tumor Examination.,Req
Findings,TF,10,TFORRES,Result or Findings as Collected,Char,,,,Result Qualifier,Result of the histopathological examination as originally received or collected.,Exp
Findings,TF,11,TFSTRESC,Standardized Result in Character Format,Char,NEOPLASM,,,Result Qualifier,Contains the tumor name mapped from TFORRES into a standard format from the controlled terms list.,Exp
Findings,TF,12,TFRESCAT,Tumor Malignancy Status,Char,NEOSTAT,,,Variable Qualifier,"Used to record the malignancy of the tumor as determined by the pathologist. It may be copied or derived from a description in TFORRES. Examples: BENIGN, MALIGNANT, METASTATIC, and UNDETERMINED.",Req
Findings,TF,13,TFNAM,Laboratory Name,Char,,,,Record Qualifier,Name or identifier of the laboratory or vendor that provided the test results.,Perm
Findings,TF,14,TFSPEC,Specimen Material Type,Char,SPEC,,,Record Qualifier,"Defines the type of tissue, organ, or fluid specimen examined. Examples: LIVER, HEART.",Req
Findings,TF,15,TFANTREG,Anatomical Region of Specimen,Char,,,,Variable Qualifier,"Defines the specific anatomical or biological region of a tissue, organ specimen, or the region from which the specimen was obtained, such as a section or part of what is defined in the TFSPEC variable. If the anatomical region is not included in the specimen description TFSPEC, it may be included in this variable. This field can be a combination of terms where needed. This field can be null if not applicable. Examples: CORTEX, MEDULLA, MUCOSA, SEROSA, ISLET, ZONA FASICULATA, ZONA RETICULARIS, CRANIAL, MEDIAN, ACCESSORY, SPINAL, LUMBAR, FRONTAL.",Perm
Findings,TF,16,TFSPCCND,Specimen Condition,Char,,,,Record Qualifier,Free or standardized text describing the condition of the specimen. Example: AUTOLYZED.,Perm
Findings,TF,17,TFLAT,Specimen Laterality within Subject,Char,LAT,,,Variable Qualifier,"Qualifier for laterality of the specimen within the subject for paired specimens. Examples: LEFT, RIGHT, BILATERAL.",Perm
Findings,TF,18,TFDIR,Specimen Directionality within Subject,Char,DIR,,,Variable Qualifier,"Qualifier for directionality of the specimen within the subject. Examples: DORSAL, PROXIMAL.",Perm
Findings,TF,19,TFMETHOD,Method of Test or Examination,Char,,,,Record Qualifier,Method of the test or examination. This could be different types of staining used for the slides. Example: H&E.,Perm
Findings,TF,20,TFEVAL,Evaluator,Char,,,,Record Qualifier,"Role of the person who provided the evaluation. Example: TOX PATHOLOGIST, PEER REVIEW, SPONSOR PATHOLOGIST.",Perm
Findings,TF,21,TFDTHREL,Relationship to Death,Char,NY,,,Record Qualifier,"Describes the relationship of a particular finding to the death of a subject. Example: Y if the tumor was the cause of death, N if the tumor was not the cause of death, or U for Unknown. Null cannot be used because the variable is required.",Req
Findings,TF,22,TFDTC,Date/Time,Char,,,ISO 8601,Timing,"For a specimen collected or observed post mortem, this is the date/time of subject disposition, in ISO 8601 format.",Perm
Findings,TF,23,TFDY,Study Day,Num,,,,Timing,"For a specimen collected or observed post mortem, this is the study day of subject disposition, in integer days. The algorithm for calculations must be relative to the sponsor-defined RFSTDTC variable in the Demographics (DM) domain.",Perm
Findings,TF,24,TFDETECT,Time in Days to Detection of Tumor,Num,,,,Timing,The number of days from the start of dosing to the earliest detection of the tumor in the experimental phase. This variable must be populated for every tumor discovered during the experimental phase.,Req
Findings,VS,1,STUDYID,Study Identifier,Char,,,,Identifier,Unique identifier for a study.,Req
Findings,VS,2,DOMAIN,Domain Abbreviation,Char,,VS,,Identifier,Two-character abbreviation for the domain.,Req
Findings,VS,3,USUBJID,Unique Subject Identifier,Char,,,,Identifier,Identifier used to uniquely identify a subject across all studies for all applications or submissions involving the product.,Req
Findings,VS,4,VSSEQ,Sequence Number,Num,,,,Identifier,Sequence number given to ensure uniqueness of subject records within a domain. May be any valid number.,Req
Findings,VS,5,VSGRPID,Group Identifier,Char,,,,Identifier,Used to tie together a block of related records in a single domain for a subject. This is not the treatment group number.,Perm
Findings,VS,6,VSSPID,Sponsor-Defined Identifier,Char,,,,Identifier,Sponsor-defined reference identifier,Perm
Findings,VS,7,VSTESTCD,Vital Signs Test Short Name,Char,SVSTSTCD,,,Topic,"Short name of the measurement described in VSTEST. It can be used as a column name when converting a dataset from a vertical to a horizontal format. The value in VSTESTCD cannot be longer than 8 characters, nor can it start with a number (e.g., ""1TEST"" is not valid). VSTESTCD cannot contain characters other than letters, numbers, or underscores.",Req
Findings,VS,8,VSTEST,Vital Signs Test Name,Char,SVSTST,,,Synonym Qualifier,Long name for VSTESTCD. The value in VSTEST cannot be longer than 40 characters.,Req
Findings,VS,9,VSCAT,Category for Vital Signs,Char,,,,Grouping Qualifier,Used to define a category of the vital signs measurement performed.,Perm
Findings,VS,10,VSSCAT,Subcategory for Vital Signs,Char,,,,Grouping Qualifier,A further categorization of the vital signs measurement performed.,Perm
Findings,VS,11,VSPOS,Vital Signs Position of Subject,Char,POSITION,,,Record Qualifier,"Position of the subject during the measurement. If the subject is restrained, populate with the position (example SITTING or STANDING).",Perm
Findings,VS,12,VSORRES,Result or Findings as Collected,Char,,,,Result Qualifier,Result of the vital signs measurement as originally received or collected.,Exp
Findings,VS,13,VSORRESU,Unit of the Original Result,Char,UNIT,,,Variable Qualifier,The unit for the original result. The unit of the original result should be mapped to a synonymous unit on the Controlled Terminology (http://www.cdisc.org/terminology) list.,Exp
Findings,VS,14,VSSTRESC,Standardized Result in Character Format,Char,,,,Result Qualifier,"Contains the result value for all findings, copied or derived from VSORRES in a standard format or standard units. VSSTRESC should store all results in character format; if results are numeric, they should also be submited in numeric format in VSSTRESN.",Exp
Findings,VS,15,VSSTRESN,Standardized Result in Numeric Format,Num,,,,Result Qualifier,Used for numeric results or findings in standard format; contains the numeric form of VSSTRESC. VSSTRESN should store all numeric test results or findings.,Exp
Findings,VS,16,VSSTRESU,Unit of the Standardized Result,Char,UNIT,,,Variable Qualifier,Standardized unit used for VSSTRESC and VSSTRESN.,Exp
Findings,VS,17,VSSTAT,Completion Status,Char,ND,,,Record Qualifier,Used to indicate when a test is not done or result is missing. Should be null if a result exists in VSORRES.,Perm
Findings,VS,18,VSREASND,Reason Not Done,Char,,,,Record Qualifier,"Describes why VSSTAT is NOT DONE, such as BROKEN EQUIPMENT.",Perm
Findings,VS,19,VSLOC,Location of Vital Signs Measurement,Char,,,,Record Qualifier,Location relevant to the collection of the vital signs measurement. Example: RECTAL for Temperature.,Perm
Findings,VS,20,VSCSTATE,Consciousness State,Char,CSTATE,,,Record Qualifier,"Consciousness state of the subject at the time of measurement. Examples: CONSCIOUS, SEMI-CONSCIOUS, UNCONSCIOUS.",Perm
Findings,VS,21,VSBLFL,Baseline Flag,Char,NY,,,Record Qualifier,A baseline indicator may be used to calculate differences or changes from baseline. Value should be Y or null. The baseline flag is sponsor defined.,Exp
Findings,VS,22,VSDRVFL,Derived Flag,Char,NY,,,Record Qualifier,Used to indicate a derived record. The value should be Y or null.,Perm
Findings,VS,23,VSEXCLFL,Exclusion Flag,Char,NY,,,Record Qualifier,"Y if the result should be excluded from all calculations, otherwise null.",Perm
Findings,VS,24,VSREASEX,Reason for Exclusion,Char,,,,Record Qualifier,The reason the result should be excluded from all calculations. Used only when VSEXCLFL is Y.,Perm
Findings,VS,25,VSUSCHFL,Unscheduled Flag,Char,NY,,,Record Qualifier,"Indicates whether the timing of the performed test or observation was unscheduled. If a test or observation was performed based upon a schedule defined in the protocol, this flag should be null. Expected values are Y or null.",Perm
Findings,VS,26,VISITDY,Planned Study Day of Collection,Num,,,,Timing,Planned day of the vital signs measurement. Should be an integer.,Perm
Findings,VS,27,VSDTC,Date/Time of Measurement,Char,,,ISO 8601,Timing,"Date/Time of the vital sign measurement, in ISO 8601 format. For indicating measurement over a period, DTC should be populated with the start date/time of collection.",Exp
Findings,VS,28,VSENDTC,End Date/Time of Measurement,Char,,,ISO 8601,Timing,"Date/Time of the end of the vital sign measurement, in ISO 8601 format. Should be populated for continuous period only.",Perm
Findings,VS,29,VSDY,Study Day of Vital Signs Measurement,Num,,,,Timing,"Study day of vital signs measurements, in integer days. For indicating measurement over a continuous period, VSDY can be used to indicate start day of that interval. The algorithm for calculations must be relative to the sponsor-defined RFSTDTC variable in the Demographics (DM) domain.",Perm
Findings,VS,30,VSENDY,Study Day of End of Measurement,Num,,,,Timing,"Study day of the end of the vital signs measurement, in integer days. Can be populated when VSDY represents the start day of a continuous evaluation interval. The algorithm for calculations must be relative to the sponsor-defined RFSTDTC variable in the Demographics (DM) domain.",Perm
Findings,VS,31,VSNOMDY,Nominal Study Day for Tabulations,Num,,,,Timing,Nominal study day used for grouping records for observations that may occur on different days into a single reported study day. Should be an integer.,Exp
Findings,VS,32,VSNOMLBL,Label for Nominal Study Day,Char,,,,Timing,"A label for a given value of VSNOMDY as presented in the study report. Examples: Pre-Treatment, Week 4, Day 28.",Perm
Findings,VS,33,VSTPT,Planned Time Point Name,Char,,,,Timing,"Text description of time when the vital signs measurement should be taken. This may be represented as an elapsed time relative to a fixed reference point, such as time of last dose. See VSTPTNUM and VSTPTREF. Examples: Predose, 1 Hour Postdose.",Perm
Findings,VS,34,VSTPTNUM,Planned Time Point Number,Num,,,,Timing,Numerical version of VSTPT to aid in sorting.,Perm
Findings,VS,35,VSELTM,Planned Elapsed Time from Time Point Ref,Char,,,ISO 8601,Timing,Planned elapsed time (in ISO 8601 format) relative to a planned fixed reference (VSTPTREF). This variable is useful where there are repetitive measures. Not a clock time or a date time variable. Represented as a duration in ISO 8601 format. Examples: '-PT15M' to represent the period of 15 minutes prior to the reference point indicated by VSTPTREF or 'PT8H' to represent the period of 8 hours after the reference point indicated by VSTPTREF.,Perm
Findings,VS,36,VSTPTREF,Time Point Reference,Char,,,,Timing,"Name of the fixed reference point referred to by VSELTM, if used for VSTPTNUM, and VSTPT. It is recommended that VSTPTREF be as descriptive as possible so the reference time point can be inferred without looking at other variables. Examples: DAY 1 DOSE, DAY 1 MEAL.",Perm
Findings,VS,37,VSRFTDTC,Date/Time of Time Point Reference,Char,,,ISO 8601,Timing,"Date/Time of the reference time point, VSTPTREF.",Perm
Findings,EG,1,STUDYID,Study Identifier,Char,,,,Identifier,Unique identifier for a study.,Req
Findings,EG,2,DOMAIN,Domain Abbreviation,Char,,EG,,Identifier,Two-character abbreviation for the domain.,Req
Findings,EG,3,USUBJID,Unique Subject Identifier,Char,,,,Identifier,Identifier used to uniquely identify a subject across all studies for all applications or submissions involving the product.,Req
Findings,EG,4,EGSEQ,Sequence Number,Num,,,,Identifier,Sequence number given to ensure uniqueness of subject records within a domain. May be any valid number.,Req
Findings,EG,5,EGGRPID,Group Identifier,Char,,,,Identifier,Used to tie together a block of related records in a single domain for a subject. This is not the treatment group number.,Perm
Findings,EG,6,EGREFID,ECG Reference Identifier,Char,,,,Identifier,Internal or external ECG identifier. Example: UUID.,Perm
Findings,EG,7,EGSPID,Sponsor-Defined Identifier,Char,,,,Identifier,Sponsor-defined reference identifier.,Perm
Findings,EG,8,EGTESTCD,ECG Test Short Name,Char,EGTESTCD,,,Topic,"Short name of the measurement, test, or examination described in EGTEST. It can be used as a column name when converting a dataset from a vertical to a horizontal format. The value in EGTESTCD cannot be longer than 8 characters, nor can it start with a number (e.g., ""1TEST"" is not valid). EGTESTCD cannot contain characters other than letters, numbers, or underscores. Examples: EGHRMN, QTMAX.",Req
Findings,EG,9,EGTEST,ECG Test Name,Char,EGTEST,,,Synonym Qualifier,"Long name for EGTESTCD. The value in EGTEST cannot be longer than 40 characters. Examples: ECG Mean Heart Rate, Summary (Max) QT Duration.",Req
Findings,EG,10,EGCAT,Category for ECG,Char,EGCATSND,,,Grouping Qualifier,"Used to define a category of the ECG test performed. Examples: MEASUREMENT, DIAGNOSIS, INTERPRETATION.",Perm
Findings,EG,11,EGPOS,ECG Position of Subject,Char,POSITION,,,Record Qualifier,"Position of the subject during a measurement or examination. If the subject is restrained, populate with the position (example SITTING or STANDING); otherwise, populate with UNCONSTRAINED.",Exp
Findings,EG,12,EGORRES,Result or Findings as Collected,Char,,,,Result Qualifier,Result of the ECG measurement or finding as originally received or collected.,Exp
Findings,EG,13,EGORRESU,Unit of the Original Result,Char,UNIT,,,Variable Qualifier,The unit for the original result. The unit of the original result should be mapped to a synonymous unit on the Controlled Terminology (http://www.cdisc.org/terminology) list.,Exp
Findings,EG,14,EGSTRESC,Standardized Result in Character Format,Char,EGSTRESC,,,Result Qualifier,"Contains the result value for all findings, copied or derived from EGORRES, in a standard format or standard units. EGSTRESC should store all results or findings in character format, using controlled terminology, where possible. If results are numeric, they should also be stored in numeric format in EGSTRESN.",Exp
Findings,EG,15,EGSTRESN,Standardized Result in Numeric Format,Num,,,,Result Qualifier,Used for numeric results or findings in standard format; contains the numeric form of EGSTRESC. EGSTRESN should store all numeric test results or findings.,Exp
Findings,EG,16,EGSTRESU,Unit of the Standardized Result,Char,UNIT,,,Variable Qualifier,Standardized unit used for EGSTRESC and EGSTRESN.,Exp
Findings,EG,17,EGSTAT,Completion Status,Char,ND,,,Record Qualifier,Used to indicate when a test is not done or result is missing. Should be null if a result exists in EGORRES.,Perm
Findings,EG,18,EGREASND,Reason Not Done,Char,,,,Record Qualifier,"Describes why EGSTAT is NOT DONE, such as BROKEN EQUIPMENT.",Perm
Findings,EG,19,EGXFN,ECG External File Name,Char,,,,Record Qualifier,File name and path for the external ECG Waveform file. Would be used if sponsor is requested to submit waveform.,Perm
Findings,EG,20,EGNAM,Laboratory Name,Char,,,,Record Qualifier,Name or identifier of the laboratory or vendor that provided the test results.,Perm
Findings,EG,21,EGMETHOD,Method of ECG Test,Char,EGMETHOD,,,Record Qualifier,"Method of the test or examination. Examples: 12 LEAD STANDARD, 6 LEAD STANDARD.",Exp
Findings,EG,22,EGLEAD,Lead Used for Measurement,Char,EGLEAD,,,Record Qualifier,Lead identified to capture the measurement.,Exp
Findings,EG,23,EGCSTATE,Consciousness State,Char,CSTATE,,,Record Qualifier,"Consciousness state of the subject at the time of measurement. Examples: CONSCIOUS, SEMI-CONSCIOUS, UNCONSCIOUS.",Exp
Findings,EG,24,EGBLFL,Baseline Flag,Char,NY,,,Record Qualifier,A baseline indicator may be used to calculate differences or changes from baseline. Value should be Y or null. The baseline flag is sponsor defined.,Exp
Findings,EG,25,EGDRVFL,Derived Flag,Char,NY,,,Record Qualifier,"Used to indicate a derived record. The value should be Y or null. Records that represent the average of other records, or that are not as originally received or collected, are examples of records that might be derived for the submission datasets.",Perm
Findings,EG,26,EGEVAL,Evaluator,Char,,,,Record Qualifier,"Role of the person who provided the evaluation. Should be null for records that contain collected or derived data. Examples: RESPONSIBLE SCIENTIST, PRINCIPAL INVESTIGATOR, PEER REVIEWER.",Perm
Findings,EG,27,EGEXCLFL,Exclusion Flag,Char,NY,,,Record Qualifier,"Y if the result should be excluded from all calculations, otherwise null.",Perm
Findings,EG,28,EGREASEX,Reason for Exclusion,Char,,,,Record Qualifier,The reason the result should be excluded from all calculations. Used only when EGEXCLFL is Y.,Perm
Findings,EG,29,EGUSCHFL,Unscheduled Flag,Char,NY,,,Record Qualifier,"Indicates whether the timing of the performed test or observation was unscheduled. If a test or observation was performed based upon a schedule defined in the protocol, this flag should be null. Expected values are Y or null.",Perm
Findings,EG,30,VISITDY,Planned Study Day of Collection,Num,,,,Timing,Planned study day of collection. Should be an integer.,Perm
Findings,EG,31,EGDTC,Date/Time of ECG Collection,Char,,,ISO 8601,Timing,"Date/Time of ECG data collection, in ISO 8601 format. For indicating measurement over a continuous period, DTC should be used to indicate start date/time of collection.",Exp
Findings,EG,32,EGENDTC,End Date/Time of ECG Collection,Char,,,ISO 8601,Timing,"Date/Time of end of the ECG data collection, in ISO 8601 format. Should be populated for measurement over a continuous period only.",Perm
Findings,EG,33,EGDY,Study Day of ECG Collection,Num,,,,Timing,"Study day of the ECG measurement collection, in integer days. The algorithm for calculations must be relative to the sponsor-defined RFSTDTC variable in the Demographics (DM) domain.",Perm
Findings,EG,34,EGENDY,Study Day of End of ECG Collection,Num,,,,Timing,"Study day of the end of the ECG measurement collection, in integer days. The algorithm for calculations must be relative to the sponsor-defined RFSTDTC variable in the Demographics (DM) domain.",Perm
Findings,EG,35,EGNOMDY,Nominal Study Day for Tabulations,Num,,,,Timing,Nominal study day used for grouping records for observations that may occur on different days into a single reported study day. Should be an integer.,Exp
Findings,EG,36,EGNOMLBL,Label for Nominal Study Day,Char,,,,Timing,"A label for a given value of EGNOMDY as presented in the study report. Examples: Pre-Treatment, Week 4, Day 28.",Perm
Findings,EG,37,EGTPT,Planned Time Point Name,Char,,,,Timing,"Text description of time when ECG data should be collected. Note: This may be represented as an elapsed time relative to a fixed reference point, such as time of last dose. See EGTPTNUM and EGTPTREF. Examples: Predose, 1 Hour Postdose.",Perm
Findings,EG,38,EGTPTNUM,Planned Time Point Number,Num,,,,Timing,Numerical version of EGTPT to aid in sorting.,Perm
Findings,EG,39,EGELTM,Planned Elapsed Time from Time Point Ref,Char,,,ISO 8601,Timing,"Planned elapsed time (in ISO 8601 format) relative to a fixed time point reference (EGTPTREF). This variable is useful where there are repetitive measures. Not a clock-time or a date-time variable. Represented as an ISO 8601 duration. Examples: ""-PT15M"" to represent the period of 15 minutes prior to the reference point indicated by EGTPTREF, or ""PT8H"" to represent the period of 8 hours after the reference point indicated by EGTPTREF.",Perm
Findings,EG,40,EGTPTREF,Time Point Reference,Char,,,,Timing,"Name of the fixed reference point referred to by EGELTM, if used for EGTPTNUM, and EGTPT. It is recommended that EGTPTREF be as descriptive as possible so the reference time point can be inferred without looking at others variables. Example: DAY 1 FIRST DOSE.",Perm
Findings,EG,41,EGRFTDTC,Date/Time of Reference Time Point,Char,,,ISO 8601,Timing,"Date/Time of the reference time point, EGTPTREF.",Perm
Findings,EG,42,EGEVLINT,Evaluation Interval,Char,,,ISO 8601,Timing,Length of evaluation interval in ISO 8601 duration format. Used in place of EGSTINT and EGENINT when EGTPTREF is not available.,Perm
Findings,EG,43,EGSTINT,Planned Start of Assessment Interval,Char,,,ISO 8601,Timing,Planned Start of an asessment interval relative to Time Point Reference (EGTPTREF) in ISO 8601 duration format.,Perm
Findings,EG,44,EGENINT,Planned End of Assessment Interval,Char,,,ISO 8601,Timing,Planned End of an assessment interval relative to Time Point Reference (EGTPTREF) in ISO 8601 duration format.,Perm
Findings,CV,1,STUDYID,Study Identifier,Char,,,,Identifier,Unique identifier for a study.,Req
Findings,CV,2,DOMAIN,Domain Abbreviation,Char,,CV,,Identifier,Two-character abbreviation for the domain.,Req
Findings,CV,3,USUBJID,Unique Subject Identifier,Char,,,,Identifier,Identifier used to uniquely identify a subject across all studies for all application or submissions involving the product.,Req
Findings,CV,4,CVSEQ,Sequence Number,Num,,,,Identifier,Sequence number given to ensure uniqueness of subject records within a domain. May be any valid number.,Req
Findings,CV,5,CVGRPID,Group Identifier,Char,,,,Identifier,Used to tie together a block of related records in a single domain for a subject and can be used to support relationships within the domain and between domains using RELREC. This is not the treatment group number.,Perm
Findings,CV,6,CVSPID,Sponsor-Defined Identifier,Char,,,,Identifier,Sponsor-defined reference identifier,Perm
Findings,CV,7,CVTESTCD,Test Short Name,Char,SCVTSTCD,,,Topic,"Short name of the measurement, test, or examination described in CVTEST. It can be used as a column name when converting a dataset from a vertical to a horizontal format. The value in CVTESTCD cannot be longer than 8 characters, nor can it start with a number (e.g., ""1TEST"" is not valid). CVTESTCD cannot contain characters other than letters, numbers, or underscores. Examples: DIABP, HR, MAP, SYSBP.",Req
Findings,CV,8,CVTEST,Test Name,Char,SCVTST,,,Synonym Qualifier,"Long name for CVTESTCD. The value in CVTEST cannot be longer than 40 characters. Examples: Diastolic Blood Pressure, Heart Rate, Mean Arterial Pressure, Systolic Blood Pressure.",Req
Findings,CV,9,CVPOS,Position of Subject During Test,Char,POSITION,,,Record Qualifier,"Position of the subject during the measurement or examination. If the subject is restrained, populate with the position (example SITTING or STANDING); otherwise, populate with UNCONSTRAINED.",Exp
Findings,CV,10,CVORRES,Result or Findings as Collected,Char,,,,Result Qualifier,Result of the measurement or finding as originally received or collected.,Exp
Findings,CV,11,CVORRESU,Unit of the Original Result,Char,UNIT,,,Variable Qualifier,The unit for the original result. The unit of the original result should be mapped to a synonymous unit on the Controlled Terminology (http://www.cdisc.org/terminology) list.,Exp
Findings,CV,12,CVSTRESC,Standardized Result in Character Format,Char,,,,Result Qualifier,"Contains the result value for all findings, copied or derived from CVORRES in a standard format or standard units. CVSTRESC should store all results or findings in character format; if results are numeric, they should also be stored in numeric format in CVSTRESN.",Exp
Findings,CV,13,CVSTRESN,Standardized Result in Numeric Format,Num,,,,Result Qualifier,Used for continuous or numeric results or findings in standard format; contains the numeric form of CVSTRESC. CVSTRESN should store all numeric test results or findings.,Exp
Findings,CV,14,CVSTRESU,Unit of the Standardized Result,Char,UNIT,,,Variable Qualifier,Standardized unit used for CVSTRESC and CVSTRESN.,Exp
Findings,CV,15,CVSTAT,Completion Status,Char,ND,,,Record Qualifier,Used to indicate when a test is not done or result is missing. Should be null if a result exists in CVORRES.,Perm
Findings,CV,16,CVREASND,Reason Not Done,Char,,,,Record Qualifier,"Describes why CVSTAT is NOT DONE, such as BROKEN EQUIPMENT.",Perm
Findings,CV,17,CVMETHOD,Method of Test,Char,,,,Record Qualifier,"Method of the test or examination. Examples: Intravascular, External Cuff.",Exp
Findings,CV,18,CVCSTATE,Consciousness State,Char,CSTATE,,,Record Qualifier,"Consciousness state of the subject at the time of measurement. Examples: CONSCIOUS, SEMI-CONSCIOUS, UNCONSCIOUS.",Exp
Findings,CV,19,CVBLFL,Baseline Flag,Char,NY,,,Record Qualifier,A baseline indicator may be used to calculate differences or changes from baseline. Value should be Y or null. The baseline flag is sponsor defined.,Exp
Findings,CV,20,CVDRVFL,Derived Flag,Char,NY,,,Record Qualifier,Used to indicate a derived record. The value should be Y or null.,Perm
Findings,CV,21,CVEXCLFL,Exclusion Flag,Char,NY,,,Record Qualifier,"Y if the result should be excluded from all calculations, otherwise null.",Perm
Findings,CV,22,CVREASEX,Reason for Exclusion,Char,,,,Record Qualifier,The reason the result should be excluded from all calculations. Used only when CVEXCLFL is Y.,Perm
Findings,CV,23,CVUSCHFL,Unscheduled Flag,Char,NY,,,Record Qualifier,"Indicates whether the timing of the performed test or observation was unscheduled. If a test or observation was performed based upon a schedule defined in the protocol, this flag should be null. Expected values are Y or null.",Perm
Findings,CV,24,CVDTC,Date/Time of Cardiovascular Test,Char,,,ISO 8601,Timing,"Date/Time of cardiovascular data collection, in ISO 8601 format. For measurements related to a continuous evaluation interval, CVDTC should be used to indicate the start date/time of that interval.",Exp
Findings,CV,25,CVENDTC,End Date/Time of Cardiovascular Test,Char,,,ISO 8601,Timing,"Date/Time of end of a cardiovascular evaluation interval, in ISO 8601 format. Should be populated when CVDTC represents the start date/time of a continuous evaluation interval.",Perm
Findings,CV,26,CVDY,Study Day of Cardiovascular Test,Num,,,,Timing,"Study day of cardiovascular data collection, in integer days. For measurements related to a continuous evaluation interval, CVDY can be used to indicate start day of that interval. The algorithm for calculating the day must be relative to the sponsor-defined RFSTDTC variable in the Demographics (DM) domain.",Perm
Findings,CV,27,CVENDY,Study Day of End of Cardiovascular Test,Num,,,,Timing,"Study day of the end of a cardiovascular evaluation interval, in integer days. Can be populated when CVDY represents the start day of a continuous evaluation interval. The algorithm for calculating the day must be relative to the sponsor-defined RFSTDTC variable in the Demographics (DM) domain.",Perm
Findings,CV,28,CVNOMDY,Nominal Study Day for Tabulations,Num,,,,Timing,Nominal study day used for grouping records for observations that may occur on different days into a single reported study day. Should be an integer.,Exp
Findings,CV,29,CVNOMLBL,Label for Nominal Study Day,Char,,,,Timing,"A label for a given value of CVNOMDY as presented in the study report Examples: Pretreatment, Week 4, Day 28.",Perm
Findings,CV,30,CVTPT,Planned Time Point Name,Char,,,,Timing,"Text description of time when data should be collected. This may be represented as an elapsed time relative to a fixed reference point, such as time of last dose. See CVTPTNUM and CVTPTREF. Examples: Predose, 1 Hour Postdose.",Exp
Findings,CV,31,CVTPTNUM,Planned Time Point Number,Num,,,,Timing,Numerical version of CVTPT to aid in sorting.,Exp
Findings,CV,32,CVELTM,Planned Elapsed Time from Time Point Ref,Char,,,ISO 8601,Timing,"Planned elapsed time (in ISO 8601 format) relative to a fixed time point reference (CVTPTREF). This variable is useful where there are repetitive measures. Not a clock time or a date time variable. Represented as an ISO 8601 duration. Examples: ""-PT15M"" to represent the period of 15 minutes prior to the reference point indicated by CVTPTREF, or ""PT8H"" to represent the period of 8 hours after the reference point indicated by CVTPTREF.",Exp
Findings,CV,33,CVTPTREF,Time Point Reference,Char,,,,Timing,"Name of the fixed reference point referred to by CVELTM, if used for CVTPTNUM, and CVTPT. It is recommended that CVTPTREF be as descriptive as possible so the reference time point can be inferred without looking at others variables. Example: DAY 1 FIRST DOSE.",Exp
Findings,CV,34,CVRFTDTC,Date/Time of Reference Time Point,Char,,,ISO 8601,Timing,"Date/Time of the reference time point, CVTPTREF.",Perm
Findings,CV,35,CVEVLINT,Evaluation Interval,Char,,,ISO 8601,Timing,Length of evaluation interval in ISO 8601 duration format. Used in place of CVSTINT and CVENINT when CVTPTREF is not available.,Perm
Findings,CV,36,CVSTINT,Planned Start of Assessment Interval,Char,,,ISO 8601,Timing,"Planned start of an assessment interval relative to Time Point Reference (CVTPTREF) in ISO 8601 duration format. Example: When the evaluation interval is from 1 to 2 hours after dosing, the value would be PT1H.",Exp
Findings,CV,37,CVENINT,Planned End of Assessment Interval,Char,,,ISO 8601,Timing,"Planned end of an assessment interval relative to Time Point Reference (CVTPTREF) in ISO 8601 duration format. Example: When the evaluation interval is from 1 to 2 hours after dosing, the value would be PT2H.",Exp
Findings,RE,1,STUDYID,Study Identifier,Char,,,,Identifier,Unique identifier for a study.,Req
Findings,RE,2,DOMAIN,Domain Abbreviation,Char,,RE,,Identifier,Two-character abbreviation for the domain.,Req
Findings,RE,3,USUBJID,Unique Subject Identifier,Char,,,,Identifier,Identifier used to uniquely identify a subject across all studies for all application or submissions involving the product.,Req
Findings,RE,4,RESEQ,Sequence Number,Num,,,,Identifier,Sequence number given to ensure uniqueness of subject records within a domain. May be any valid number.,Req
Findings,RE,5,REGRPID,Group Identifier,Char,,,,Identifier,Used to tie together a block of related records in a single domain for a subject and can be used to support relationships within the domain and between domains using RELREC. This is not the treatment group number.,Perm
Findings,RE,6,RESPID,Sponsor-Defined Identifier,Char,,,,Identifier,Sponsor-defined reference identifier.,Perm
Findings,RE,7,RETESTCD,Test Short Name,Char,SRETSTCD,,,Topic,"Short name of the measurement, test, or examination described in RETEST. It can be used as a column name when converting a dataset from a vertical to a horizontal format. The value in RETESTCD cannot be longer than 8 characters, nor can it start with a number (e.g., ""1TEST"" is not valid). RETESTCD cannot contain characters other than letters, numbers, or underscores. Examples: RESPRATE, TIDALVOL, MV.",Req
Findings,RE,8,RETEST,Test Name,Char,SRETST,,,Synonym Qualifier,"Long name for RETESTCD. The value in RETEST cannot be longer than 40 characters. Examples: Respiratory Rate, Tidal Volume, Minute Volume.",Req
Findings,RE,9,REPOS,Position of Subject During Test,Char,POSITION,,,Record Qualifier,"Position of the subject during the measurement or examination, If the subject is restrained, populate with the position (example SITTING or STANDING); otherwise, populate with UNCONSTRAINED.",Exp
Findings,RE,10,REORRES,Result or Findings as Collected,Char,,,,Result Qualifier,Result of the measurement or finding as originally received or collected.,Exp
Findings,RE,11,REORRESU,Unit of the Original Result,Char,UNIT,,,Variable Qualifier,The unit for the original result. The unit of the original result should be mapped to a synonymous unit on the Controlled Terminology (http://www.cdisc.org/terminology) list.,Exp
Findings,RE,12,RESTRESC,Standardized Result in Character Format,Char,,,,Result Qualifier,"Contains the result value for all findings, copied or derived from REORRES in a standard format or standard units. RESTRESC should store all results or findings in character format; if results are numeric, they should also be stored in numeric format in RESTRESN.",Exp
Findings,RE,13,RESTRESN,Standardized Result in Numeric Format,Num,,,,Result Qualifier,Used for continuous or numeric results or findings in standard format; contains the numeric form of RESTRESC. RESTRESN should store all numeric test results or findings.,Exp
Findings,RE,14,RESTRESU,Unit of the Standardized Result,Char,UNIT,,,Variable Qualifier,Standardized unit used for RESTRESC and RESTRESN.,Exp
Findings,RE,15,RESTAT,Completion Status,Char,ND,,,Record Qualifier,Used to indicate when a test is not done or result is missing. Should be null if a result exists in REORRES.,Perm
Findings,RE,16,REREASND,Reason Not Done,Char,,,,Record Qualifier,"Describes why RESTAT is NOT DONE, such as BROKEN EQUIPMENT.",Perm
Findings,RE,17,REMETHOD,Method of Test,Char,,,,Record Qualifier,"Method of the test or examination. Examples: Whole body plethysmograph, Head-out plethysmograph, Invasive.",Exp
Findings,RE,18,RECSTATE,Consciousness State,Char,CSTATE,,,Record Qualifier,"Consciousness state of the subject at the time of measurement. Examples: CONSCIOUS, SEMI-CONSCIOUS, UNCONSCIOUS",Exp
Findings,RE,19,REBLFL,Baseline Flag,Char,NY,,,Record Qualifier,A baseline indicator may be used to calculate differences or changes from baseline. Value should be Y or null. The baseline flag is sponsor defined.,Exp
Findings,RE,20,REDRVFL,Derived Flag,Char,NY,,,Record Qualifier,Used to indicate a derived record. The value should be Y or null.,Perm
Findings,RE,21,REEXCLFL,Exclusion Flag,Char,NY,,,Record Qualifier,"Y if the result should be excluded from all calculations, otherwise null.",Perm
Findings,RE,22,REREASEX,Reason for Exclusion,Char,,,,Record Qualifier,The reason the result should be excluded from all calculations. Used only when REEXCLFL is Y.,Perm
Findings,RE,23,REUSCHFL,Unscheduled Flag,Char,NY,,,Record Qualifier,"Indicates whether the timing of the performed test or observation was unscheduled. If a test or observation was performed based upon a schedule defined in the protocol, this flag should be null. Expected values are Y or null.",Perm
Findings,RE,24,REDTC,Date/Time of Respiratory Measurement,Char,,,ISO 8601,Timing,"Date/Time of respiratory data collection, in ISO 8601 format. For measurements related to a continuous evaluation interval, REDTC should be used to indicate the start date/time of that interval.",Exp
Findings,RE,25,REENDTC,End Date/Time of Respiratory Measurement,Char,,,ISO 8601,Timing,"Date/Time of end of the respiratory evaluation interval, in ISO 8601 format. Should be populated when REDTC represents the start date/time of a continuous evaluation interval.",Perm
Findings,RE,26,REDY,Study Day of Respiratory Measurement,Num,,,,Timing,"Study day of respiratory data collection, in integer days. For measurements related to a continuous evaluation interval, REDY can be used to indicate start day of that interval. The algorithm for calculations must be relative to the sponsor-defined RFSTDTC variable in the Demographics (DM) domain.",Perm
Findings,RE,27,REENDY,End Study Day of Respiratory Measurement,Num,,,,Timing,"Study day of the respiratory data collection, in integer days. Can be populated when REDY represents the start day of a continuous evaluation interval. The algorithm for calculations must be relative to the sponsor-defined RFSTDTC variable in the Demographics (DM) domain.",Perm
Findings,RE,28,RENOMDY,Nominal Study Day for Tabulations,Num,,,,Timing,Nominal study day used for grouping records for observations that may occur on different days into a single reported study day. Should be an integer.,Exp
Findings,RE,29,RENOMLBL,Label for Nominal Study Day,Char,,,,Timing,"A label for a given value of RENOMDY as presented in the study report. Examples: Pretreatment, Week 4, Day 28.",Perm
Findings,RE,30,RETPT,Planned Time Point Name,Char,,,,Timing,"Text description of time when respiratory data should be collected. This may be represented as an elapsed time relative to a fixed reference point, such as time of last dose. See RETPTNUM and RETPTREF. Examples: Predose, 1 Hour Postdose.",Exp
Findings,RE,31,RETPTNUM,Planned Time Point Number,Num,,,,Timing,Numerical version of RETPT to aid in sorting.,Exp
Findings,RE,32,REELTM,Planned Elapsed Time from Time Point Ref,Char,,,ISO 8601,Timing,"Planned elapsed time (in ISO 8601 format) relative to a fixed time point reference (RETPTREF). This variable is useful where there are repetitive measures. Not a clock time or a date time variable. Represented as an ISO 8601 duration. Examples: ""-PT15M"" to represent the period of 15 minutes prior to the reference point indicated by RETPTREF, or ""PT8H"" to represent the period of 8 hours after the reference point indicated by RETPTREF.",Exp
Findings,RE,33,RETPTREF,Time Point Reference,Char,,,,Timing,"Name of the fixed reference point referred to by REELTM, if used for RETPTNUM, and RETPT. It is recommended that RETPTREF be as descriptive as possible so the reference time point can be inferred without looking at others variables. Example: DAY 1 FIRST DOSE.",Exp
Findings,RE,34,RERFTDTC,Date/Time of Reference Time Point,Char,,,ISO 8601,Timing,"Date/Time of the reference time point, RETPTREF.",Perm
Findings,RE,35,REEVLINT,Evaluation Interval,Char,,,ISO 8601,Timing,Length of evaluation interval in ISO 8601 duration format. Used in place of RESTINT and REENINT when RETPTREF is not available.,Perm
Findings,RE,36,RESTINT,Planned Start of Assessment Interval,Char,,,ISO 8601,Timing,"Planned start of an assessment interval relative to Time Point Reference (RETPTREF) in ISO 8601 duration format. Example: When the evaluation interval is from 1 to 2 hours after dosing, the value would be PT1H.",Exp
Findings,RE,37,REENINT,Planned End of Assessment Interval,Char,,,ISO 8601,Timing,"Planned end of an assessment interval relative to Time Point Reference (RETPTREF) in ISO 8601 duration format. Example: When the evaluation interval is from 1 to 2 hours after dosing, the value would be PT2H.",Exp
Special-Purpose,DM,1,STUDYID,Study Identifier,Char,,,,Identifier,Unique identifier for a study.,Req
Special-Purpose,DM,2,DOMAIN,Domain Abbreviation,Char,,DM,,Identifier,Two-character abbreviation for the domain.,Req
Special-Purpose,DM,3,USUBJID,Unique Subject Identifier,Char,,,,Identifier,Identifier used to uniquely identify a subject across all studies for all applications or submissions involving the product.,Req
Special-Purpose,DM,4,SUBJID,Subject Identifier for the Study,Char,,,,Topic,"Subject (i.e., Animal) identifier used within the study.",Req
Special-Purpose,DM,5,RFSTDTC,Subject Reference Start Date/Time,Char,,,ISO 8601,Record Qualifier,Reference start date/time for the subject in ISO 8601 format. Usually equivalent to date/time when subject was first exposed to study treatment. Study day calculation (the --DY variable) in all domains will be based on this date. The sponsor must define what collected date is used to populate RFSTDTC in the data definition file.,Req
Special-Purpose,DM,6,RFENDTC,Subject Reference End Date/Time,Char,,,ISO 8601,Record Qualifier,Reference end date/time for the subject in ISO 8601 format. Usually equivalent to the date/time when the subject was determined to have left the study. The sponsor must define what collected date is used to populate RFENDTC in the data definition file.,Exp
Special-Purpose,DM,7,RFXSTDTC,Date/Time of First Study Treatment,Char,,,ISO 8601,Record Qualifier,"First date/time of exposure to any protocol-specified treatment or therapy, equal to the earliest value of EXSTDTC. Note: Absolute first.",Perm
Special-Purpose,DM,8,RFXENDTC,Date/Time of Last Study Treatment,Char,,,ISO 8601,Record Qualifier,"Last date/time of exposure to any protocol-specified treatment or therapy, equal to the latest value of EXENDTC (or the latest value of EXSTDTC if EXENDTC was not collected or is missing). Note: Absolute last",Perm
Special-Purpose,DM,9,SITEID,Study Site Identifier,Char,,,,Record Qualifier,Unique identifier for a study site within a submission. Use only if subjects are housed at different sites.,Perm
Special-Purpose,DM,10,BRTHDTC,Date/Time of Birth,Char,,,ISO 8601,Record Qualifier,"Date/Time of birth of the subject, in ISO 8601 format.",Perm
Special-Purpose,DM,11,AGE,Age,Num,,,,Record Qualifier,"May be derived (RFSTDTC - BRTHDTC), but BRTHDTC may not be available in all cases. Age may also be collected.",Perm
Special-Purpose,DM,12,AGETXT,Age Range,Char,,,number-number,Record Qualifier,"Used when the age is a range and the exact birthdate is not known. This variable is a character field for the purposes of defining age ranges, e.g., if the information available for the age of the subject is 6-8 and AGEU is WEEKS. Populate only when BRTHDTC or AGE is not specified. The format for AGETXT is ""number-number"" (e.g., 6-8).",Perm
Special-Purpose,DM,13,AGEU,Age Unit,Char,AGEU,,,Variable Qualifier,Units associated with AGE and AGETXT.,Exp
Special-Purpose,DM,14,SEX,Sex,Char,SEX,,,Record Qualifier,The sex of the subject.,Req
Special-Purpose,DM,15,SPECIES,Species,Char,SPECIES,,,Record Qualifier,"If this variable is excluded in the DM domain, the information must be present at a higher level (either Trial Sets or Trial Summary).",Perm
Special-Purpose,DM,16,STRAIN,Strain/Substrain,Char,STRAIN,,,Record Qualifier,"Used to identify the vendor-supplied strain, substrain, or breed designation for the test system under study. It may combine the background strain, substrain, and associated genetic modifications as supplied by the vendor (e.g., C57BL/6, A/J, B6.129-Pparg<tm2Rev>/J, FISCHER 344, SPRAGUE-DAWLEY IGS, WISTAR Kyoto, BEAGLE, CYNOMOLGUS, and CHIMPANZEE). The SEND Controlled Terminology codelist consists of commonly used wild type strains. It is extensible to accommodate strains not listed and genetically modified substrains. If this variable is excluded in the DM domain, the information must be present at a higher level (either Trial Sets or Trial Summary). Country of origin for non-human primates should not go into STRAIN. In general, details related to coat color (e.g., White and Red designations for New Zealand Rabbits) should not go into STRAIN.",Perm
Special-Purpose,DM,17,SBSTRAIN,Strain/Substrain Details,Char,,,,Record Qualifier,"Free-text field that allows the sponsor to enter further details qualifiying the SPECIES and/or STRAIN, depending on the level to which these variables were defined. Examples include the description of a specific genetic alteration, country of origin for non-human primates, details related to coat color (e.g., White and Red designations for New Zealand Rabbits), and important animal husbandry information (e.g., SPF, BR, VAF).",Perm
Special-Purpose,DM,18,ARMCD,Planned Arm Code,Char,,,,Record Qualifier,Short name for ARM (may be up to 20 characters) used for sorting and programming. Should be populated when Arms have been defined in the TA domain.,Exp
Special-Purpose,DM,19,ARM,Description of Planned Arm,Char,,,,Synonym Qualifier,"Descriptive name given to a specific Trial Arm (e.g., Low Dose, Mid Dose, 10 mg/kg/day dose, Third Arm) to which the subject was assigned.",Perm
Special-Purpose,DM,20,SETCD,Set Code,Char,,,,Record Qualifier,"Short name of a specific Trial Set to which the subject was assigned, as defined by the sponsor. Maximum of 8 characters. This represents the Trial Set for which parameters are being submitted.",Req
Special-Purpose,CO,1,STUDYID,Study Identifier,Char,,,,Identifier,Unique identifier for a study.,Req
Special-Purpose,CO,2,DOMAIN,Domain Abbreviation,Char,,CO,,Identifier,Two-character abbreviation for the domain.,Req
Special-Purpose,CO,3,RDOMAIN,Related Domain Abbreviation,Char,,,,Record Qualifier,Domain abbreviation of the parent record(s). Null for comments collected as a general comment or additional information.,Exp
Special-Purpose,CO,4,USUBJID,Unique Subject Identifier,Char,,,,Identifier,Identifier used to uniquely identify a subject across all studies for all applications or submissions involving the product. Either USUBJID or POOLID must be populated unless the record contains a study comment unrelated to a USUBJID or POOLID.,Exp
Special-Purpose,CO,5,POOLID,Pool Identifier,Char,,,,Identifier,Identifier used for pooled subjects to assign a single result to multiple subjects. Either USUBJID or POOLID must be populated unless the record contains a study comment unrelated to a USUBJID or POOLID.,Perm
Special-Purpose,CO,6,COSEQ,Sequence Number,Num,,,,Identifier,"The sequence number must be unique for each record within a USUBJID or POOLID, whichever applies for the record.",Req
Special-Purpose,CO,7,IDVAR,Identifying Variable,Char,,,,Record Qualifier,"Variable in the parent dataset that identifies the record(s) to which the comment applies, which is contained in IDVAR. Examples: BWSEQ or CLGRPID. Used only when individual comments are related to domain records.",Exp
Special-Purpose,CO,8,IDVARVAL,Identifying Variable Value,Char,,,,Record Qualifier,Value of identifying variable of the parent record(s). Used only when individual comments are related to domain records. Cannot be populated if IDVAR is null.,Exp
Special-Purpose,CO,9,COREF,Comment Reference,Char,,,,Record Qualifier,"Sponsor-defined reference associated with the comment. May be the logbook page number, name (e.g., Logbook), or a combination of information that identifies the reference (e.g., Logbook, page 650, Day 28, morning).",Perm
Special-Purpose,CO,10,COVAL,Comment,Char,,,,Topic,The text of the comment. Text over 200 characters can be added to additional columns COVAL1-COVALn. See Assumption 4 in Section 5.2.1.1.,Req
Special-Purpose,CO,11,COEVAL,Evaluator,Char,,,,Record Qualifier,"Used to describe the originator of the comment. Examples: TECHNICIAN, STUDY DIRECTOR, VET.",Perm
Special-Purpose,CO,12,CODTC,Date/Time of Comment,Char,,,ISO 8601,Timing,"Date/Time of the comment, in ISO 8601 format. May be null if this is a child record of another domain or if the comment date was not collected. In all other cases, this represents the date/time of the comment in ISO 8601 format.",Exp
Special-Purpose,CO,13,CODY,Study Day of Comment,Num,,,,Timing,"Study day of the comment, in integer days. May be null if this is a child record of another domain or if the comment date was not collected. The algorithm for calculations must be relative to the sponsor-defined RFSTDTC variable in the Demographics (DM) domain.",Perm
Special-Purpose,SE,1,STUDYID,Study Identifier,Char,,,,Identifier,Unique identifier for a study.,Req
Special-Purpose,SE,2,DOMAIN,Domain Abbreviation,Char,,SE,,Identifier,Two-character abbreviation for the domain.,Req
Special-Purpose,SE,3,USUBJID,Unique Subject Identifier,Char,,,,Identifier,Identifier used to uniquely identify a subject across all studies for all applications or submissions involving the product.,Req
Special-Purpose,SE,4,SESEQ,Sequence Number,Num,,,,Identifier,Sequence number given to ensure uniqueness of subject records within a USUBJID within a domain. May be any valid number.,Req
Special-Purpose,SE,5,ETCD,Element Code,Char,,,,Topic,ETCD (the companion to ELEMENT) is limited to 8 characters and does not have special character restrictions.,Req
Special-Purpose,SE,6,ELEMENT,Description of Element,Char,,,,Synonym Qualifier,The name of the Element..,Perm
Special-Purpose,SE,7,SESTDTC,Start Date/Time of Element,Char,,,ISO 8601,Timing,"Start date/time for an Element for each subject, in ISO 8601 format.",Req
Special-Purpose,SE,8,SEENDTC,End Date/Time of Element,Char,,,ISO 8601,Timing,"End date/time for an Element for each subject, in ISO 8601 format.",Exp
Special-Purpose,SE,9,SEUPDES,Description of Unplanned Element,Char,,,,Synonym Qualifier,Description of what happened to the subject during an unplanned Element. Used only if ETCD has the value of UNPLAN.,Perm
Trial Design,TE,1,STUDYID,Study Identifier,Char,,,,Identifier,Unique identifier for a study.,Req
Trial Design,TE,2,DOMAIN,Domain Abbreviation,Char,,TE,,Identifier,Two-character abbreviation for the domain.,Req
Trial Design,TE,3,ETCD,Element Code,Char,,,,Topic,ETCD (the short form of ELEMENT) is limited to 8 characters and does not have special character restrictions.,Req
Trial Design,TE,4,ELEMENT,Description of Element,Char,,,,Synonym Qualifier,The name of the Element.,Req
Trial Design,TE,5,TESTRL,Rule for Start of Element,Char,,,,Rule,Expresses rule for beginning Element.,Req
Trial Design,TE,6,TEENRL,Rule for End of Element,Char,,,,Rule,Expresses rule for ending Element. Either TEENRL or TEDUR must be present for each Element; both may be present.,Perm
Trial Design,TE,7,TEDUR,Planned Duration of Element,Char,,,ISO 8601,Timing,Planned duration of Element in ISO 8601 format. Use when an Element represents a fixed duration. TEENRL or TEDUR must be present for each Element; both may be present.,Perm
Trial Design,TA,1,STUDYID,Study Identifier,Char,,,,Identifier,Unique identifier for a study.,Req
Trial Design,TA,2,DOMAIN,Domain Abbreviation,Char,,TA,,Identifier,Two-character abbreviation for the domain.,Req
Trial Design,TA,3,ARMCD,Planned Arm Code,Char,,,,Topic,Short name of a specific ARM (may be up to 20 characters) used for sorting and programming. Should be populated in Demographics when Arms have been defined in this domain.,Req
Trial Design,TA,4,ARM,Description of Planned Arm,Char,,,,Synonym Qualifier,"Descriptive name given to a specific Trial Arm (e.g., Low Dose, Mid Dose, 10 mg/kg/day dose).",Req
Trial Design,TA,5,TAETORD,Order of Element within Arm,Num,,,,Timing,Number that provides the order of the planned Element within the Arm. This value should be an integer.,Req
Trial Design,TA,6,ETCD,Element Code,Char,,,,Record Qualifier,ETCD (the companion to ELEMENT) is limited to 8 characters and does not have special character restrictions.,Req
Trial Design,TA,7,ELEMENT,Description of Element,Char,,,,Synonym Qualifier,The name of the Element.,Perm
Trial Design,TA,8,TABRANCH,Branch,Char,,,,Rule,"Conditions subjects meet, occurring at the end of an Element, which cause an Arm to branch off from other Arms (e.g., randomization to control group).",Perm
Trial Design,TA,9,TATRANS,Transition Rule,Char,,,,Rule,"If the study design allows for a subject to transition to an Element other than the next sequential Element, as defined by TAETORD, then the conditions for transitioning to those other Elements, as well as the alternative Element sequences, are specified in this rule (e.g., TATRANS = 'Subject with Hypoactivity Transitions to Rest Period to Treatment 2').",Perm
Trial Design,TA,10,EPOCH,Trial Epoch,Char,,,,Timing,"Name of the study Epoch with which this Element of the Arm is associated (e.g., Treatment, Screen). Equivalent to 'Phase' or 'Period.'",Exp
Trial Design,TX,1,STUDYID,Study Identifier,Char,,,,Identifier,Unique identifier for a study.,Req
Trial Design,TX,2,DOMAIN,Domain Abbreviation,Char,,TX,,Identifier,Two-character abbreviation for the domain.,Req
Trial Design,TX,3,SETCD,Set Code,Char,,,,Identifier,Short name of the Trial Set. The same element may occur more than once within an Arm. Maximum 8 characters. This represents the Trial Set for which parameters are being submitted.,Req
Trial Design,TX,4,SET,Set Description,Char,,,,Synonym Qualifier,"Long description of a specific Trial Set, as defined by the sponsor.",Req
Trial Design,TX,5,TXSEQ,Sequence Number,Num,,,,Identifier,Unique number for this record within this dataset. (This sequence should be unique within the entire dataset because there is no USUBJID.),Req
Trial Design,TX,6,TXPARMCD,Trial Set Parameter Short Name,Char,STSPRMCD,,,Topic,Short character value for the Trial Set parameter described in TXPARM. Maximum 8 characters.,Req
Trial Design,TX,7,TXPARM,Trial Set Parameter,Char,STSPRM,,,Synonym Qualifier,Term for the Trial Set parameter. Maximum 40 characters.,Req
Trial Design,TX,8,TXVAL,Trial Set Parameter Value,Char,,,,Result Qualifier,"Value of the Trial Set parameter (e.g., Fed ad libitum or Restricted Feeding when TXPARM is FEEDREG). Some parameters may be subject to controlled terminology. See the Controlled Terms, Codelist, or Format column in Section 7.4.2 that lists all defined Trial Set parameters.",Req
Trial Design,TS,1,STUDYID,Study Identifier,Char,,,,Identifier,Unique identifier for a study within the submission.,Req
Trial Design,TS,2,DOMAIN,Domain Abbreviation,Char,,TS,,Identifier,Two-character abbreviation for the domain most relevant to the observation.,Req
Trial Design,TS,3,TSSEQ,Sequence Number,Num,,,,Identifier,"Sequence number used to ensure uniqueness within a TSPARMCD. Allows inclusion of multiple records for the same TSPARMCD, and can be used to join related records.",Req
Trial Design,TS,4,TSGRPID,Group Identifier,Char,,,,Identifier,Used to tie together a group of related records. This is not the sponsor-defined protocol group number.,Exp
Trial Design,TS,5,TSPARMCD,Trial Summary Parameter Short Name,Char,STSPRMCD,,,Topic,Short character value for the trial design characteristic described in TSPARM. Value must be 8 characters or less.,Req
Trial Design,TS,6,TSPARM,Trial Summary Parameter,Char,STSPRM,,,Synonym Qualifier,Term for the trial parameter. Value must be 40 characters or less.,Req
Trial Design,TS,7,TSVAL,Parameter Value,Char,,,,Result Qualifier,"Value of the TS parameter (e.g., ""FDA"" when TSPARM is GLP Type). The values for some parameters may be subject to controlled terminology. See the Controlled Terms, Codelist, or Format column in Section 7.6.3 that lists all defined parameters. TSVAL can only be null if TSVALNF is populated.",Exp
Trial Design,TS,8,TSVALNF,Parameter Null Flavor,Char,,,ISO 21090 NullFlavor enumeration,Record Qualifier,"Null flavor for the value of the TSPARMs, which should be included according to the trial summary code table below if and only if TSVAL is null.",Perm
Relationship,RELREC,1,STUDYID,Study Identifier,Char,,,,,Unique identifier for a study.,Req
Relationship,RELREC,2,RDOMAIN,Related Domain Abbreviation,Char,,,,,Two-character abbreviation for the domain of the parent record(s).,Req
Relationship,RELREC,3,USUBJID,Unique Subject Identifier,Char,,,,,"Unique Subject Identifier of the Parent record(s). Either USUBJID or POOLID must be populated, except for certain domain-to-domain relationships (see Section 8.2.3).",Exp
Relationship,RELREC,4,POOLID,Pool Identifier,Char,,,,,"Pool Identifier of the Parent record(s). If POOLID is entered, POOLDEF records must exist for each subject and the USUBJID must be null. Either USUBJID or POOLID must be populated.",Perm
Relationship,RELREC,5,IDVAR,Identifying Variable,Char,,,,,Name of the identifying variable in the general observation class domain that identifies the related record(s). Examples include BWSEQ and BWGRPID.,Req
Relationship,RELREC,6,IDVARVAL,Identifying Variable Value,Char,,,,,"Value of identifying variable described in IDVAR. For example, if BWSEQ is the variable being used to describe this record, then the value of BWSEQ would be entered here.",Exp
Relationship,RELREC,7,RELTYPE,Relationship Type,Char,RELTYPE,,,,Identifies the hierarchical level of the records in the relationship. Values are only necessary when identifying a relationship between domains (as described in Section 8.4). Values should be either ONE or MANY.,Perm
Relationship,RELREC,8,RELID,Relationship Identifier,Char,,,,,Unique value within a study that identifies the relationship. RELID can be any value the sponsor chooses and is only meaningful within the df dataset to identify the related/associated domain records.,Req
Relationship,SUPPQUAL,1,STUDYID,Study Identifier,Char,,,,,Unique study identifier of the parent record(s).,Req
Relationship,SUPPQUAL,2,RDOMAIN,Related Domain Abbreviation,Char,,,,,Two-character abbreviation for the domain of the parent record(s).,Req
Relationship,SUPPQUAL,3,USUBJID,Unique Subject Identifier,Char,,,,,Unique subject identifier of the parent record(s). Either USUBJID or POOLID must be populated.,Exp
Relationship,SUPPQUAL,4,POOLID,Pool Identifier,Char,,,,,"Pool identifier of the Parent record(s).. If POOLID is entered, POOLDEF records must exist for each subject and the USUBJID must be null. Either USUBJID or POOLID must be populated.",Perm
Relationship,SUPPQUAL,5,IDVAR,Identifying Variable,Char,,,,,"Identifying variable in the dataset that identifies the related record(s). Examples: BWSEQ, CLGRPID.",Exp
Relationship,SUPPQUAL,6,IDVARVAL,Identifying Variable Value,Char,,,,,Value of identifying variable of the parent record(s).,Exp
Relationship,SUPPQUAL,7,QNAM,Qualifier Variable Name,Char,,,,,"The short name of the Qualifier variable, which is used as a column name in a domain view with data from the parent domain. The value in QNAM cannot be longer than 8 characters nor can it start with a number (e.g., ""1TEST"" is not valid). QNAM cannot contain characters other than letters, numbers, or underscores. This will often be the column name in the sponsor's operational dataset. The value in QNAM may not be the same as any variable name defined in another domain or the SDTM. The QNAM should uniquely correspond to a QLABEL within a single domain.",Req
Relationship,SUPPQUAL,8,QLABEL,Qualifier Variable Label,Char,,,,,This is the long name or label associated with QNAM. The value in QLABEL should be in title case and cannot be longer than 40 characters. This will often be the column label in the sponsor's operational dataset.,Req
Relationship,SUPPQUAL,9,QVAL,Data Value,Char,,,,,"Result of, response to, or value associated with QNAM. A value for this column is required; no records can be in SUPP-- with a null value for QVAL.",Req
Relationship,SUPPQUAL,10,QORIG,Origin,Char,,,,,"QORIG is used to indicate the origin of the data. Possible values are COLLECTED, DERIVED, OTHER, and NOT AVAILABLE. See Section 3.2.2.1.",Perm
Relationship,SUPPQUAL,11,QEVAL,Evaluator,Char,,,,,"Used only for results that are subjective (i.e., assigned by a person or a group). Should be null for records that contain objectively collected or derived data. Some examples include PATHOLOGIST or VETERINARIAN, etc.",Perm
Relationship,POOLDEF,1,STUDYID,Study Identifier,Char,,,,Identifier,Unique identifier for a study.,Req
Relationship,POOLDEF,2,POOLID,Pool Identifier,Char,,,,Identifier,Identifier used for pooling subjects to assign a single finding to multiple subjects.,Req
Relationship,POOLDEF,3,USUBJID,Unique Subject Identifier,Char,,,,Identifier,Identifier used to uniquely identify across all studies for all applications or submissions involving the product.,Req
