Class,Dataset Name,Order,Variable Name,Label,Type,Codelist,Value list,Format,Role,Notes,Core
Special-Purpose,CO,1,STUDYID,Study Identifier,Char,,,,Identifier,Unique identifier for a study.,Req
Special-Purpose,CO,2,DOMAIN,Domain Abbreviation,Char,,CO,,Identifier,Two-character abbreviation for the domain.,Req
Special-Purpose,CO,3,RDOMAIN,Related Domain Abbreviation,Char,,,,Record Qualifier,Two-character abbreviation for the domain of the parent record(s). Null for comments collected on a general comments or additional information CRF page.,Perm
Special-Purpose,CO,4,USUBJID,Unique Subject Identifier,Char,,,,Identifier,Identifier used to uniquely identify a subject across all studies for all applications or submissions involving the product.,Req
Special-Purpose,CO,5,COSEQ,Sequence Number,Num,,,,Identifier,Sequence Number given to ensure uniqueness of subject records within a domain. May be any valid number.,Req
Special-Purpose,CO,6,IDVAR,Identifying Variable,Char,,,,Record Qualifier,Identifying variable in the parent dataset that identifies the record(s) to which the comment applies. Examples AESEQ or CMGRPID. Used only when individual comments are related to domain records. Null for comments collected on separate CRFs.,Perm
Special-Purpose,CO,7,IDVARVAL,Identifying Variable Value,Char,,,,Record Qualifier,Value of identifying variable of the parent record(s). Used only when individual comments are related to domain records. Null for comments collected on separate CRFs.,Perm
Special-Purpose,CO,8,COREF,Comment Reference,Char,,,,Record Qualifier,"Sponsor-defined reference associated with the comment. May be the CRF page number (e.g., 650), or a module name (e.g., DEMOG), or a combination of information that identifies the reference (e.g. 650-VITALS-VISIT 2).",Perm
Special-Purpose,CO,9,COVAL,Comment,Char,,,,Topic,The text of the comment. Text over 200 characters can be added to additional columns COVAL1-COVALn. See Assumption 3.,Req
Special-Purpose,CO,10,COEVAL,Evaluator,Char,,,,Record Qualifier,"Used to describe the originator of the comment. Examples: CENTRAL, REVIEWER, ADJUDICATION COMMITTEE, PRINCIPAL INVESTIGATOR.",Perm
Special-Purpose,CO,11,COEVALID,Evaluator Identifier,Char,C96777,,,Record Qualifier,"Used to distinguish multiple evaluators with the same role recorded in --EVAL. Examples: RADIOLOGIST, RADIOLOGIST1, RADIOLOGIST2.",Perm
Special-Purpose,CO,12,CODTC,Date/Time of Comment,Char,,,ISO 8601,Timing,Date/time of comment on dedicated comment form. Should be null if this is a child record of another domain or if comment date was not collected.,Perm
Special-Purpose,CO,13,CODY,Study Day of Comment,Num,,,,Timing,"Study day of the comment, in integer days. The algorithm for calculations must be relative to the sponsor-defined RFSTDTC variable in the Demographics (DM) domain.",Perm
Special-Purpose,DM,1,STUDYID,Study Identifier,Char,,,,Identifier,Unique identifier for a study.,Req
Special-Purpose,DM,2,DOMAIN,Domain Abbreviation,Char,,DM,,Identifier,Two-character abbreviation for the domain.,Req
Special-Purpose,DM,3,USUBJID,Unique Subject Identifier,Char,,,,Identifier,"Identifier used to uniquely identify a subject across all studies for all applications or submissions involving the product. This must be a unique number, and could be a compound identifier formed by concatenating STUDYID-SITEID-SUBJID.",Req
Special-Purpose,DM,4,SUBJID,Subject Identifier for the Study,Char,,,,Topic,"Subject identifier, which must be unique within the study. Often the ID of the subject as recorded on a CRF.",Req
Special-Purpose,DM,5,RFSTDTC,Subject Reference Start Date/Time,Char,,,ISO 8601,Record Qualifier,Reference Start Date/time for the subject in ISO 8601 character format. Usually equivalent to date/time when subject was first exposed to study treatment. See Assumption 9 for additional detail on when RFSTDTC may be null.,Exp
Special-Purpose,DM,6,RFENDTC,Subject Reference End Date/Time,Char,,,ISO 8601,Record Qualifier,"Reference End Date/time for the subject in ISO 8601 character format. Usually equivalent to the date/time when subject was determined to have ended the trial, and often equivalent to date/time of last exposure to study treatment. Required for all randomized subjects; null for screen failures or unassigned subjects.",Exp
Special-Purpose,DM,7,RFXSTDTC,Date/Time of First Study Treatment,Char,,,ISO 8601,Record Qualifier,"First date/time of exposure to any protocol-specified treatment or therapy, equal to the earliest value of EXSTDTC.",Exp
Special-Purpose,DM,8,RFXENDTC,Date/Time of Last Study Treatment,Char,,,ISO 8601,Record Qualifier,"Last date/time of exposure to any protocol-specified treatment or therapy, equal to the latest value of EXENDTC (or the latest value of EXSTDTC if EXENDTC was not collected or is missing).",Exp
Special-Purpose,DM,9,RFICDTC,Date/Time of Informed Consent,Char,,,ISO 8601,Record Qualifier,"Date/time of informed consent in ISO 8601 character format. This will be the same as the date of informed consent in the Disposition domain, if that protocol milestone is documented. Would be null only in studies not collecting the date of informed consent.",Exp
Special-Purpose,DM,10,RFPENDTC,Date/Time of End of Participation,Char,,,ISO 8601,Record Qualifier,"Date/time when subject ended participation or follow-up in a trial, as defined in the protocol, in ISO 8601 character format. Should correspond to the last known date of contact. Examples include completion date, withdrawal date, last follow-up, date recorded for lost to follow up, or death date.",Exp
Special-Purpose,DM,11,DTHDTC,Date/Time of Death,Char,,,ISO 8601,Record Qualifier,"Date/time of death for any subject who died, in ISO 8601 format. Should represent the date/time that is captured in the clinical-trial database.",Exp
Special-Purpose,DM,12,DTHFL,Subject Death Flag,Char,C66742,,,Record Qualifier,"Indicates the subject died. Should be ""Y"" or null. Should be populated even when the death date is unknown.",Exp
Special-Purpose,DM,13,SITEID,Study Site Identifier,Char,,,,Record Qualifier,Unique identifier for a site within a study.,Req
Special-Purpose,DM,14,INVID,Investigator Identifier,Char,,,,Record Qualifier,An identifier to describe the Investigator for the study. May be used in addition to SITEID. Not needed if SITEID is equivalent to INVID.,Perm
Special-Purpose,DM,15,INVNAM,Investigator Name,Char,,,,Synonym Qualifier,Name of the investigator for a site.,Perm
Special-Purpose,DM,16,BRTHDTC,Date/Time of Birth,Char,,,ISO 8601,Record Qualifier,Date/time of birth of the subject.,Perm
Special-Purpose,DM,17,AGE,Age,Num,,,,Record Qualifier,"Age expressed in AGEU. May be derived from RFSTDTC and BRTHDTC, but BRTHDTC may not be available in all cases (due to subject privacy concerns).",Exp
Special-Purpose,DM,18,AGEU,Age Units,Char,C66781,,,Variable Qualifier,Units associated with AGE.,Exp
Special-Purpose,DM,19,SEX,Sex,Char,C66731,,,Record Qualifier,Sex of the subject.,Req
Special-Purpose,DM,20,RACE,Race,Char,C74457,,,Record Qualifier,"Race of the subject. Sponsors should refer to ""Collection of Race and Ethnicity Data in Clinical Trials"" (FDA, October, 2016) for guidance regarding the collection of race (https://www.fda.gov/downloads/regulatoryinformation/guidances/ucm126396.pdf) See Assumption below regarding RACE.",Exp
Special-Purpose,DM,21,ETHNIC,Ethnicity,Char,C66790,,,Record Qualifier,"The ethnicity of the subject. Sponsors should refer to ""Collection of Race and Ethnicity Data in Clinical Trials"" (FDA, October, 2016) for guidance regarding the collection of ethnicity (https://www.fda.gov/downloads/regulatoryinformation/guidances/ucm126396.pdf).",Perm
Special-Purpose,DM,22,ARMCD,Planned Arm Code,Char,,,,Record Qualifier,"ARMCD is limited to 20 characters. It is not subject to the character restrictions that apply to TESTCD.The maximum length of ARMCD is longer than for other ""short"" variables to accommodate the kind of values that are likely to be needed for crossover trials. For example, if ARMCD values for a seven-period crossover were constructed using two-character abbreviations for each treatment and separating hyphens, the length of ARMCD values would be 20. If the subject was not assigned to an Arm, ARMCD is null and ARMNRS is populated.
With the exception of studies which use multi-stage Arm assignments, must be a value of ARMCD in the Trial Arms Dataset.",Exp
Special-Purpose,DM,23,ARM,Description of Planned Arm,Char,,,,Synonym Qualifier,"Name of the Arm to which the subject was assigned. If the subject was not assigned to an Arm, ARM is null and ARMNRS is populated.
With the exception of studies which use multi-stage Arm assignments, must be a value of ARM in the Trial Arms Dataset.",Exp
Special-Purpose,DM,24,ACTARMCD,Actual Arm Code,Char,,,,Record Qualifier,"Code of actual Arm. ACTARMCD is limited to 20 characters. It is not subject to the character restrictions that apply to TESTCD. The maximum length of ACTARMCD is longer than for other short variables to accommodate the kind of values that are likely to be needed for crossover trials.
With the exception of studies which use multi-stage Arm assignments, must be a value of ARMCD in the Trial Arms Dataset.
If the subject was not assigned to an Arm or followed a course not described by any planned Arm, ACTARMCD is null and ARMNRS is populated.",Exp
Special-Purpose,DM,25,ACTARM,Description of Actual Arm,Char,,,,Synonym Qualifier,"Description of actual Arm.
With the exception of studies which use multi-stage Arm assignments, must be a value of ARM in the Trial Arms Dataset.
If the subject was not assigned to an Arm or followed a course not described by any planned Arm, ACTARM is null and ARMNRS is populated.",Exp
Special-Purpose,DM,26,ARMNRS,Reason Arm and/or Actual Arm is Null,Char,,,,Record Qualifier,"A coded reason that Arm variables (ARM and ARMCD) and/or actual Arm variables (ACTARM and ACTARMCD) are null. Examples: ""SCREEN FAILURE"", ""NOT ASSIGNED"", ""ASSIGNED, NOT TREATED"", ""UNPLANNED TREATMENT"". It is assumed that if the Arm and actual Arm variables are null, the same reason applies to both Arm and actual Arm.",Exp
Special-Purpose,DM,27,ACTARMUD,Description of Unplanned Actual Arm,Char,,,,Record Qualifier,A description of actual treatment for a subject who did not receive treatment described in one of the planned trial Arms.,Exp
Special-Purpose,DM,28,COUNTRY,Country,Char,,,ISO 3166-1 Alpha-3,Record Qualifier,Country of the investigational site in which the subject participated in the trial.,Req
Special-Purpose,DM,29,DMDTC,Date/Time of Collection,Char,,,ISO 8601,Timing,Date/time of demographic data collection.,Perm
Special-Purpose,DM,30,DMDY,Study Day of Collection,Num,,,,Timing,Study day of collection measured as integer days.,Perm
Special-Purpose,SE,1,STUDYID,Study Identifier,Char,,,,Identifier,Unique identifier for a study.,Req
Special-Purpose,SE,2,DOMAIN,Domain Abbreviation,Char,,SE,,Identifier,Two-character abbreviation for the domain.,Req
Special-Purpose,SE,3,USUBJID,Unique Subject Identifier,Char,,,,Identifier,Identifier used to uniquely identify a subject across all studies for all applications or submissions involving the product.,Req
Special-Purpose,SE,4,SESEQ,Sequence Number,Num,,,,Identifier,Sequence number given to ensure uniqueness of subject records within a domain. Should be assigned to be consistent chronological order.,Req
Special-Purpose,SE,5,ETCD,Element Code,Char,,,,Topic,"1. ETCD (the companion to ELEMENT) is limited to 8 characters and does not have special character restrictions. These values should be short for ease of use in programming, but it is not expected that ETCD will need to serve as a variable name.
2. If an encountered Element differs from the planned Element to the point that it is considered a new Element, then use ""UNPLAN"" as the value for ETCD to represent this Element.",Req
Special-Purpose,SE,6,ELEMENT,Description of Element,Char,,,,Synonym Qualifier,"The name of the Element. If ETCD has a value of ""UNPLAN"" then ELEMENT should be null.",Perm
Special-Purpose,SE,7,TAETORD,Planned Order of Element within Arm,Num,,,,Timing,Number that gives the planned order of the Element within the subject's assigned Arm.,Perm
Special-Purpose,SE,8,EPOCH,Epoch,Char,C99079,,,Timing,Epoch associated with the Element in the planned sequence of Elements for the Arm to which the subject was assigned.,Perm
Special-Purpose,SE,9,SESTDTC,Start Date/Time of Element,Char,,,ISO 8601,Timing,Start date/time for an Element for each subject.,Req
Special-Purpose,SE,10,SEENDTC,End Date/Time of Element,Char,,,ISO 8601,Timing,End date/time for an Element for each subject.,Exp
Special-Purpose,SE,11,SEUPDES,Description of Unplanned Element,Char,,,,Synonym Qualifier,"Description of what happened to the subject during an unplanned Element. Used only if ETCD has the value of ""UNPLAN"".",Perm
Special-Purpose,SM,1,STUDYID,Study Identifier,Char,,,,Identifier,Unique identifier for a study.,Req
Special-Purpose,SM,2,DOMAIN,Domain,Char,,SM,,Identifier,Two-character abbreviation for the domain.,Req
Special-Purpose,SM,3,USUBJID,Unique Subject Identifier,Char,,,,Identifier,Identifier used to uniquely identify a subject across all studies.,Req
Special-Purpose,SM,4,SMSEQ,Sequence Number,Num,,,,Identifier,Sequence number to ensure uniqueness of subject records. Should be assigned to be consistent chronological order.,Req
Special-Purpose,SM,5,MIDS,Disease Milestone Instance Name,Char,,,,Topic,"Name of the specific Disease Milestone. For types of Disease Milestone that can occur multiple times, the name will end with a sequence number. Example: ""HYPO1"".",Req
Special-Purpose,SM,6,MIDSTYPE,Disease Milestone Type,Char,,,,Record Qualifier,"The type of Disease Milestone. Example: ""HYPOGLYCEMIC EVENT"".",Req
Special-Purpose,SM,7,SMSTDTC,Start Date/Time of Milestone,Char,,,ISO 8601,Timing,"State date/time of Milestone Instance, if Milestone is an intervention or event, or date of Milestone if Milestone is a finding.",Exp
Special-Purpose,SM,8,SMENDTC,End Date/Time of Milestone,Char,,,ISO 8601,Timing,End date/time of Disease Milestone Instance.,Exp
Special-Purpose,SM,9,SMSTDY,Study Day of Start of Milestone,Num,,,,Timing,"Study day of start of Disease Milestone Instance, relative to the sponsor-defined RFSTDTC.",Exp
Special-Purpose,SM,10,SMENDY,Study Day of End of Milestone,Num,,,,Timing,"Study day of end of Disease Milestone Instance, relative to the sponsor-defined RFSTDTC.",Exp
Special-Purpose,SV,1,STUDYID,Study Identifier,Char,,,,Identifier,Unique identifier for a study.,Req
Special-Purpose,SV,2,DOMAIN,Domain Abbreviation,Char,,SV,,Identifier,Two-character abbreviation for the domain.,Req
Special-Purpose,SV,3,USUBJID,Unique Subject Identifier,Char,,,,Identifier,Identifier used to uniquely identify a subject across all studies for all applications or submissions involving the product.,Req
Special-Purpose,SV,4,VISITNUM,Visit Number,Num,,,,Topic,"1. Clinical encounter number. (Decimal numbering may be useful for inserting unplanned visits.)
2. Numeric version of VISIT, used for sorting.",Req
Special-Purpose,SV,5,VISIT,Visit Name,Char,,,,Synonym Qualifier,"1. Protocol-defined description of clinical encounter.
2. May be used in addition to VISITNUM and/or VISITDY as a text description of the clinical encounter.",Perm
Special-Purpose,SV,6,VISITDY,Planned Study Day of Visit,Num,,,,Timing,Planned study day of the start of the visit based upon RFSTDTC in Demographics.,Perm
Special-Purpose,SV,7,SVSTDTC,Start Date/Time of Visit,Char,,,ISO 8601,Timing,Start date/time for a Visit.,Exp
Special-Purpose,SV,8,SVENDTC,End Date/Time of Visit,Char,,,ISO 8601,Timing,End date/time of a Visit.,Exp
Special-Purpose,SV,9,SVSTDY,Study Day of Start of Visit,Num,,,,Timing,Study day of start of visit relative to the sponsor-defined RFSTDTC.,Perm
Special-Purpose,SV,10,SVENDY,Study Day of End of Visit,Num,,,,Timing,Study day of end of visit relative to the sponsor-defined RFSTDTC.,Perm
Special-Purpose,SV,11,SVUPDES,Description of Unplanned Visit,Char,,,,Synonym Qualifier,Description of what happened to the subject during an unplanned visit.,Perm
Interventions,AG,1,STUDYID,Study Identifier,Char,,,,Identifier,Unique identifier for a study.,Req
Interventions,AG,2,DOMAIN,Domain Abbreviation,Char,,AG,,Identifier,Two-character abbreviation for the domain.,Req
Interventions,AG,3,USUBJID,Unique Subject Identifier,Char,,,,Identifier,Identifier used to uniquely identify a subject across all studies for all applications or submissions involving the product.,Req
Interventions,AG,4,AGSEQ,Sequence Number,Num,,,,Identifier,Sequence Number given to ensure uniqueness of subject records within a domain. May be any valid number.,Req
Interventions,AG,5,AGGRPID,Group ID,Char,,,,Identifier,Used to tie together a block of related records in a single domain for a subject.,Perm
Interventions,AG,6,AGSPID,Sponsor-Defined Identifier,Char,,,,Identifier,Sponsor-defined reference number. Perhaps pre-printed on the CRF as an explicit line identifier or defined in the sponsor's operational database. Example: Line number from the procedure or test page.,Perm
Interventions,AG,7,AGLNKID,Link ID,Char,,,,Identifier,Identifier used to link related records across domains.This may be a one-to-one or a one-to-many relationship.,Perm
Interventions,AG,8,AGLNKGRP,Link Group ID,Char,,,,Identifier,Identifier used to link related records across domains.This will usually be a many-to-one relationship.,Perm
Interventions,AG,9,AGTRT,Reported Agent Name,Char,,,,Topic,Verbatim medication name that is either pre-printed or collected on a CRF.,Req
Interventions,AG,10,AGMODIFY,Modified Reported Name,Char,,,,Synonym Qualifier,"If AGTRT is modified to facilitate coding, then AGMODIFY will contain the modified text.",Perm
Interventions,AG,11,AGDECOD,Standardized Agent Name,Char,,,,Synonym Qualifier,"Standardized or dictionary-derived text description of AGTRT or AGMODIFY. Equivalent to the generic medication name in WHO Drug. The sponsor is expected to provide the dictionary name and version used to map the terms utilizing the external codelist element in the Define-XML document. If an intervention term does not have a decode value in the dictionary, then AGDECOD will be left blank.",Perm
Interventions,AG,12,AGCAT,Category for Agent,Char,,,,Grouping Qualifier,"Used to define a category of agent. Examples: ""CHALLENGE AGENT"", or ""PET TRACER"".",Perm
Interventions,AG,13,AGSCAT,Subcategory for Agent,Char,,,,Grouping Qualifier,Further categorization of agent.,Perm
Interventions,AG,14,AGPRESP,AG Pre-Specified,Char,C66742,,,Variable Qualifier,"Used to indicate whether (""Y""/null) information about the use of a specific agent was solicited on the CRF.",Perm
Interventions,AG,15,AGOCCUR,AG Occurrence,Char,C66742,,,Record Qualifier,"When the use of specific agent is solicited, AGOCCUR is used to indicate whether or not (""Y""/""N"") use of the agent occurred. Values are null for agents not specifically solicited.",Perm
Interventions,AG,16,AGSTAT,Completion Status,Char,C66789,,,Record Qualifier,"Used to indicate that a question about a pre-specified agent was not answered. Should be null or have a value of ""NOT DONE"".",Perm
Interventions,AG,17,AGREASND,Reason Procedure Agent Not Collected,Char,,,,Record Qualifier,"Describes the reason a response to a question about the occurrence of a procedure agent was not collected. Used in conjunction with AGSTAT when value is ""NOT DONE"".",Perm
Interventions,AG,18,AGCLAS,Agent Class,Char,,,,Variable Qualifier,"Drug class. May be obtained from coding. When coding to a single class, populate with class value. If using a dictionary and coding to multiple classes, then follow assumption 4.1.2.8.3 or omit AGCLAS.",Perm
Interventions,AG,19,AGCLASCD,Agent Class Code,Char,,,,Variable Qualifier,"Class code corresponding to AGCLAS. Drug class. May be obtained from coding. When coding to a single class, populate with class code. If using a dictionary and coding to multiple classes, then follow Assumption 4.1.2.8.3, Multiple Values for a Non-Result Qualifier Variable, or omit AGCLASCD.",Perm
Interventions,AG,20,AGDOSE,Dose per Administration,Num,,,,Record Qualifier,Amount of AGTRT taken.,Perm
Interventions,AG,21,AGDOSTXT,Dose Description,Char,,,,Record Qualifier,"Dosing amounts or a range of dosing information collected in text form. Units may be stored in AGDOSU. Example: ""200-400"", ""15-20"".",Perm
Interventions,AG,22,AGDOSU,Dose Units,Char,C71620,,,Variable Qualifier,"Units for AGDOSE and AGDOSTXT. Examples: ""ng"", ""mg"", or ""mg/kg"".",Perm
Interventions,AG,23,AGDOSFRM,Dose Form,Char,C66726,,,Variable Qualifier,"Dose form for AGTRT. Examples: ""TABLET"", ""AEROSOL"".",Perm
Interventions,AG,24,AGDOSFRQ,Dosing Frequency per Interval,Char,C71113,,,Variable Qualifier,"Usually expressed as the number of repeated administrations of AGDOSE within a specific time period. Example: ""ONCE"".",Perm
Interventions,AG,25,AGROUTE,Route of Administration,Char,C66729,,,Variable Qualifier,"Route of administration for AGTRT. Examples: ""ORAL"".",Perm
Interventions,AG,26,VISITNUM,Visit Number,Num,,,,Timing,"1. Clinical encounter number.
2. Numeric version of VISIT, used for sorting.",Exp
Interventions,AG,27,VISIT,Visit Name,Char,,,,Timing,"1. Protocol-defined description of clinical encounter.
2. May be used in addition to VISITNUM and/or VISITDY.",Perm
Interventions,AG,28,VISITDY,Planned Study Day of Visit,Num,,,,Timing,Planned study day of the visit based upon RFSTDTC in Demographics.,Perm
Interventions,AG,29,TAETORD,Planned Order of Element within Arm,Num,,,,Timing,Number that gives the planned order of the Element within the Arm for the Element in which the agent administration started.,Perm
Interventions,AG,30,EPOCH,Epoch,Char,C99079,,,Timing,Epoch associated with the start date/time of the agent administration started.,Perm
Interventions,AG,31,AGSTDTC,Start Date/Time of Agent,Char,,,ISO 8601,Timing,The date/time when administration of the treatment indicated by AGTRT and the dosing variables began.,Perm
Interventions,AG,32,AGENDTC,End Date/Time of Agent,Char,,,ISO 8601,Timing,The date/time when administration of the treatment indicated by AGTRT and the dosing variables ended.,Perm
Interventions,AG,33,AGSTDY,Study Day of Start of Agent,Num,,,,Timing,Study day of start of agent relative to the sponsor-defined RFSTDTC.,Perm
Interventions,AG,34,AGENDY,Study Day of End of Agent,Num,,,,Timing,Study day of end of agent relative to the sponsor-defined RFSTDTC.,Perm
Interventions,AG,35,AGDUR,Duration of Agent,Char,,,ISO 8601,Timing,Collected duration for an agent episode. Used only if collected on the CRF and not derived from start and end date/times.,Perm
Interventions,AG,36,AGSTRF,Start Relative to Reference Period,Char,C66728,,,Timing,"Describes the start of the agent relative to sponsor-defined reference period. The sponsor-defined reference period is a continuous period of time defined by a discrete starting point and a discrete ending point (represented by RFSTDTC and RFENDTC in Demographics). If information such as ""PRIOR"", ""ONGOING"", or ""CONTINUING"" was collected, this information may be translated into AGSTRF.",Perm
Interventions,AG,37,AGENRF,End Relative to Reference Period,Char,C66728,,,Timing,"Describes the end of the agent relative to the sponsor-defined reference period. The sponsor-defined reference period is a continuous period of time defined by a discrete starting point and a discrete ending point (represented by RFSTDTC and RFENDTC in Demographics). If information such as ""PRIOR"", ""ONGOING"", or ""CONTINUING"" was collected, this information may be translated into AGENRF.",Perm
Interventions,AG,38,AGSTRTPT,Start Relative to Reference Time Point,Char,C66728,,,Timing,Identifies the start of the agent as being before or after the sponsor-defined reference time point defined by variable AGSTTPT.,Perm
Interventions,AG,39,AGSTTPT,Start Reference Time Point,Char,,,,Timing,"Description or date/time in ISO 8601 character format of the reference point referred to by AGSTRTPT. Examples: ""2003-12-15"" or ""VISIT 1"".",Perm
Interventions,AG,40,AGENRTPT,End Relative to Reference Time Point,Char,C66728,,,Timing,Identifies the end of the agent as being before or after the reference time point defined by variable AGENTPT. Identifies the end of the agent as being before or after the sponsor-defined reference time point defined by variable AGENTPT.,Perm
Interventions,AG,41,AGENTPT,End Reference Time Point,Char,,,,Timing,"Description or date/time in ISO 8601 character format of the reference point referred to by AGENRTPT. Examples: ""2003-12-25"" or ""VISIT 2"".",Perm
Interventions,CM,1,STUDYID,Study Identifier,Char,,,,Identifier,Unique identifier for a study.,Req
Interventions,CM,2,DOMAIN,Domain Abbreviation,Char,,CM,,Identifier,Two-character abbreviation for the domain.,Req
Interventions,CM,3,USUBJID,Unique Subject Identifier,Char,,,,Identifier,Identifier used to uniquely identify a subject across all studies for all applications or submissions involving the product.,Req
Interventions,CM,4,CMSEQ,Sequence Number,Num,,,,Identifier,Sequence number to ensure uniqueness of subject records within a domain. May be any valid number.,Req
Interventions,CM,5,CMGRPID,Group ID,Char,,,,Identifier,Used to tie together a block of related records in a single domain for a subject.,Perm
Interventions,CM,6,CMSPID,Sponsor-Defined Identifier,Char,,,,Identifier,Sponsor-defined reference number. Example: a number pre-printed on the CRF as an explicit line identifier or record identifier defined in the sponsor's operational database. Example: line number on a concomitant medication page.,Perm
Interventions,CM,7,CMTRT,"Reported Name of Drug, Med, or Therapy",Char,,,,Topic,Verbatim medication name that is either pre-printed or collected on a CRF.,Req
Interventions,CM,8,CMMODIFY,Modified Reported Name,Char,,,,Synonym Qualifier,"If CMTRT is modified to facilitate coding, then CMMODIFY will contain the modified text.",Perm
Interventions,CM,9,CMDECOD,Standardized Medication Name,Char,,,,Synonym Qualifier,"Standardized or dictionary-derived text description of CMTRT or CMMODIFY. Equivalent to the generic drug name in WHO Drug. The sponsor is expected to provide the dictionary name and version used to map the terms utilizing the external codelist element in the Define-XML document. If an intervention term does not have a decode value in the dictionary, then CMDECOD will be left blank.",Perm
Interventions,CM,10,CMCAT,Category for Medication,Char,,,,Grouping Qualifier,"Used to define a category of medications/treatment. Examples: ""PRIOR"", ""CONCOMITANT"", ""ANTI-CANCER MEDICATION"", or ""GENERAL CONMED"".",Perm
Interventions,CM,11,CMSCAT,Subcategory for Medication,Char,,,,Grouping Qualifier,"A further categorization of medications/treatment. Examples: ""CHEMOTHERAPY"", ""HORMONAL THERAPY"", ""ALTERNATIVE THERAPY"".",Perm
Interventions,CM,12,CMPRESP,CM Pre-specified,Char,C66742,,,Variable Qualifier,"Used to indicate whether (""Y""/null) information about the use of a specific medication was solicited on the CRF.",Perm
Interventions,CM,13,CMOCCUR,CM Occurrence,Char,C66742,,,Record Qualifier,"When the use of a specific medication is solicited. CMOCCUR is used to indicate whether or not (""Y""/""N"") use of the medication occurred. Values are null for medications not specifically solicited.",Perm
Interventions,CM,14,CMSTAT,Completion Status,Char,C66789,,,Record Qualifier,"Used to indicate that a question about the occurrence of a pre-specified intervention was not answered. Should be null or have a value of ""NOT DONE"".",Perm
Interventions,CM,15,CMREASND,Reason Medication Not Collected,Char,,,,Record Qualifier,"Reason not done. Used in conjunction with CMSTAT when value is ""NOT DONE"".",Perm
Interventions,CM,16,CMINDC,Indication,Char,,,,Record Qualifier,"Denotes why a medication was taken or administered. Examples: ""NAUSEA"", ""HYPERTENSION"".",Perm
Interventions,CM,17,CMCLAS,Medication Class,Char,,,,Variable Qualifier,"Drug class. May be obtained from coding. When coding to a single class, populate with class value. If using a dictionary and coding to multiple classes, then follow Section 4.2.8.3, Multiple Values for a Non-Result Qualifier Variable, or omit CMCLAS.",Perm
Interventions,CM,18,CMCLASCD,Medication Class Code,Char,,,,Variable Qualifier,"Class code corresponding to CMCLAS. Drug class. May be obtained from coding. When coding to a single class, populate with class code. If using a dictionary and coding to multiple classes, then follow Section 4.2.8.3, Multiple Values for a Non-Result Qualifier Variable, or omit CMCLASCD.",Perm
Interventions,CM,19,CMDOSE,Dose per Administration,Num,,,,Record Qualifier,Amount of CMTRT given. Not populated when CMDOSTXT is populated.,Perm
Interventions,CM,20,CMDOSTXT,Dose Description,Char,,,,Record Qualifier,"Dosing amounts or a range of dosing information collected in text form. Units may be stored in CMDOSU. Examples: ""200-400"", ""15-20"". Not populated when CMDOSE is populated.",Perm
Interventions,CM,21,CMDOSU,Dose Units,Char,C71620,,,Variable Qualifier,"Units for CMDOSE, CMDOSTOT, or CMDOSTXT. Examples: ""ng"", ""mg"", or ""mg/kg"".",Perm
Interventions,CM,22,CMDOSFRM,Dose Form,Char,C66726,,,Variable Qualifier,"Dose form for CMTRT. Examples: ""TABLET"", ""LOTION"".",Perm
Interventions,CM,23,CMDOSFRQ,Dosing Frequency per Interval,Char,C71113,,,Variable Qualifier,"Usually expressed as the number of repeated administrations of CMDOSE within a specific time period. Examples: ""BID"" (twice daily), ""Q12H"" (every 12 hours).",Perm
Interventions,CM,24,CMDOSTOT,Total Daily Dose,Num,,,,Record Qualifier,Total daily dose of CMTRT using the units in CMDOSU. Used when dosing is collected as Total Daily Dose. Total dose over a period other than day could be recorded in a separate Supplemental Qualifier variable.,Perm
Interventions,CM,25,CMDOSRGM,Intended Dose Regimen,Char,,,,Variable Qualifier,"Text description of the (intended) schedule or regimen for the Intervention. Example: ""TWO WEEKS ON, TWO WEEKS OFF"".",Perm
Interventions,CM,26,CMROUTE,Route of Administration,Char,C66729,,,Variable Qualifier,"Route of administration for the intervention. Examples: ""ORAL"", ""INTRAVENOUS"".",Perm
Interventions,CM,27,CMADJ,Reason for Dose Adjustment,Char,,,,Record Qualifier,"Describes reason or explanation of why a dose is adjusted. Examples: ""ADVERSE EVENT"", ""INSUFFICIENT RESPONSE"", ""NON-MEDICAL REASON"".",Perm
Interventions,CM,28,CMRSDISC,Reason the Intervention Was Discontinued,Char,,,,Record Qualifier,"When dosing of a treatment is recorded over multiple successive records, this variable is applicable only for the (chronologically) last record for the treatment.",Perm
Interventions,CM,29,TAETORD,Planned Order of Element within Arm,Num,,,,Timing,Number that gives the planned order of the Element within the Arm for the Element in which the medication administration started. Null for medications that started before study participation.,Perm
Interventions,CM,30,EPOCH,Epoch,Char,C99079,,,Timing,Epoch associated with the start date/time of the medication administration. Null for medications that started before study participation.,Perm
Interventions,CM,31,CMSTDTC,Start Date/Time of Medication,Char,,,ISO 8601,Timing,Start date/time of the medication administration represented in ISO 8601 character format.,Perm
Interventions,CM,32,CMENDTC,End Date/Time of Medication,Char,,,ISO 8601,Timing,End date/time of the medication administration represented in ISO 8601 character format.,Perm
Interventions,CM,33,CMSTDY,Study Day of Start of Medication,Num,,,,Timing,Study day of start of medication relative to the sponsor-defined RFSTDTC.,Perm
Interventions,CM,34,CMENDY,Study Day of End of Medication,Num,,,,Timing,Study day of end of medication relative to the sponsor-defined RFSTDTC.,Perm
Interventions,CM,35,CMDUR,Duration,Char,,,ISO 8601,Timing,Collected duration for a treatment episode. Used only if collected on the CRF and not derived from start and end date/times.,Perm
Interventions,CM,36,CMSTRF,Start Relative to Reference Period,Char,C66728,,,Timing,"Describes the start of the medication relative to sponsor-defined reference period. The sponsor-defined reference period is a continuous period of time defined by a discrete starting point and a discrete ending point (represented by RFSTDTC and RFENDTC in Demographics). If information such as ""PRIOR"" was collected, this information may be translated into CMSTRF.
Not all values of the codelist are allowable for this variable. See Section 4.4.7, Use of Relative Timing Variables.",Perm
Interventions,CM,37,CMENRF,End Relative to Reference Period,Char,C66728,,,Timing,"Describes the end of the medication relative to the sponsor-defined reference period. The sponsor-defined reference period is a continuous period of time defined by a discrete starting point and a discrete ending point (represented by RFSTDTC and RFENDTC in Demographics). If information such as ""PRIOR"", ""ONGOING, or ""CONTINUING"" was collected, this information may be translated into CMENRF.
Not all values of the codelist are allowable for this variable. See Section 4.4.7, Use of Relative Timing Variables.",Perm
Interventions,CM,38,CMSTRTPT,Start Relative to Reference Time Point,Char,C66728,,,Timing,"Identifies the start of the medication as being before or after the sponsor-defined reference time point defined by variable CMSTTPT.
Not all values of the codelist are allowable for this variable. See Section 4.4.7, Use of Relative Timing Variables.",Perm
Interventions,CM,39,CMSTTPT,Start Reference Time Point,Char,,,,Timing,"Description or date/time in ISO 8601 character format of the sponsor-defined reference point referred to by CMSTRTPT. Examples: ""2003-12-15"" or ""VISIT 1"".",Perm
Interventions,CM,40,CMENRTPT,End Relative to Reference Time Point,Char,C66728,,,Timing,"Identifies the end of the medication as being before or after the sponsor-defined reference time point defined by variable CMENTPT.
Not all values of the codelist are allowable for this variable. See Section 4.4.7, Use of Relative Timing Variables.",Perm
Interventions,CM,41,CMENTPT,End Reference Time Point,Char,,,,Timing,"Description or date/time in ISO 8601 character format of the sponsor-defined reference point referred to by CMENRTPT. Examples: ""2003-12-25"" or ""VISIT 2"".",Perm
Interventions,EX,1,STUDYID,Study Identifier,Char,,,,Identifier,Unique identifier for a study.,Req
Interventions,EX,2,DOMAIN,Domain Abbreviation,Char,,EX,,Identifier,Two-character abbreviation for the domain.,Req
Interventions,EX,3,USUBJID,Unique Subject Identifier,Char,,,,Identifier,Identifier used to uniquely identify a subject across all studies for all applications or submissions involving the product.,Req
Interventions,EX,4,EXSEQ,Sequence Number,Num,,,,Identifier,Sequence Number given to ensure uniqueness of subject records within a domain. May be any valid number.,Req
Interventions,EX,5,EXGRPID,Group ID,Char,,,,Identifier,Used to tie together a block of related records in a single domain for a subject.,Perm
Interventions,EX,6,EXREFID,Reference ID,Char,,,,Identifier,"Internal or external identifier (e.g., kit number, bottle label, vial identifier).",Perm
Interventions,EX,7,EXSPID,Sponsor-Defined Identifier,Char,,,,Identifier,Sponsor-defined reference number. Perhaps pre-printed on the CRF as an explicit line identifier or defined in the sponsor's operational database. Example: Line number on a CRF Page.,Perm
Interventions,EX,8,EXLNKID,Link ID,Char,,,,Identifier,Identifier used to link related records across domains.,Perm
Interventions,EX,9,EXLNKGRP,Link Group ID,Char,,,,Identifier,"Identifier used to link related, grouped records across domains.",Perm
Interventions,EX,10,EXTRT,Name of Treatment,Char,,,,Topic,Name of the protocol-specified study treatment given during the dosing period for the observation.,Req
Interventions,EX,11,EXCAT,Category of Treatment,Char,,,,Grouping Qualifier,Used to define a category of EXTRT values.,Perm
Interventions,EX,12,EXSCAT,Subcategory of Treatment,Char,,,,Grouping Qualifier,A further categorization of EXCAT values.,Perm
Interventions,EX,13,EXDOSE,Dose,Num,,,,Record Qualifier,Amount of EXTRT when numeric. Not populated when EXDOSTXT is populated.,Exp
Interventions,EX,14,EXDOSTXT,Dose Description,Char,,,,Record Qualifier,Amount of EXTRT when non-numeric. Dosing amounts or a range of dosing information collected in text form. Example: 200-400. Not populated when EXDOSE is populated.,Perm
Interventions,EX,15,EXDOSU,Dose Units,Char,C71620,,,Variable Qualifier,"Units for EXDOSE, EXDOSTOT, or EXDOSTXT representing protocol-specified values. Examples: ""ng"", ""mg"", ""mg/kg"", ""mg/m2"".",Exp
Interventions,EX,16,EXDOSFRM,Dose Form,Char,C66726,,,Variable Qualifier,"Dose form for EXTRT. Examples: ""TABLET"", ""LOTION"".",Exp
Interventions,EX,17,EXDOSFRQ,Dosing Frequency per Interval,Char,C71113,,,Variable Qualifier,"Usually expressed as the number of repeated administrations of EXDOSE within a specific time period. Examples: ""Q2H"", ""QD"", ""BID"".",Perm
Interventions,EX,18,EXDOSRGM,Intended Dose Regimen,Char,,,,Variable Qualifier,"Text description of the intended schedule or regimen for the Intervention. Example: ""TWO WEEKS ON, TWO WEEKS OFF"".",Perm
Interventions,EX,19,EXROUTE,Route of Administration,Char,C66729,,,Variable Qualifier,"Route of administration for the intervention. Examples: ""ORAL"", ""INTRAVENOUS"".",Perm
Interventions,EX,20,EXLOT,Lot Number,Char,,,,Record Qualifier,Lot number of the intervention product.,Perm
Interventions,EX,21,EXLOC,Location of Dose Administration,Char,C74456,,,Record Qualifier,"Specifies location of administration. Examples: ""ARM"", ""LIP"".",Perm
Interventions,EX,22,EXLAT,Laterality,Char,C99073,,,Variable Qualifier,"Qualifier for anatomical location further detailing laterality of the intervention administration. Examples: ""LEFT"", ""RIGHT"".",Perm
Interventions,EX,23,EXDIR,Directionality,Char,C99074,,,Variable Qualifier,"Qualifier for anatomical location further detailing directionality. Examples: ""ANTERIOR"", ""LOWER"", ""PROXIMAL"", ""UPPER"".",Perm
Interventions,EX,24,EXFAST,Fasting Status,Char,C66742,,,Record Qualifier,"Indicator used to identify fasting status. Examples: ""Y"", ""N"".",Perm
Interventions,EX,25,EXADJ,Reason for Dose Adjustment,Char,,,,Record Qualifier,Describes reason or explanation of why a dose is adjusted.,Perm
Interventions,EX,26,TAETORD,Planned Order of Element within Arm,Num,,,,Timing,Number that gives the planned order of the Element within the Arm.,Perm
Interventions,EX,27,EPOCH,Epoch,Char,C99079,,,Timing,"Trial Epoch of the Exposure record. Examples: ""RUN-IN"", ""TREATMENT"".",Perm
Interventions,EX,28,EXSTDTC,Start Date/Time of Treatment,Char,,,ISO 8601,Timing,The date/time when administration of the treatment indicated by EXTRT and EXDOSE began.,Exp
Interventions,EX,29,EXENDTC,End Date/Time of Treatment,Char,,,ISO 8601,Timing,"The date/time when administration of the treatment indicated by EXTRT and EXDOSE ended. For administrations considered given at a point in time (e.g., oral tablet, pre-filled syringe injection), where only an administration date/time is collected, EXSTDTC should be copied to EXENDTC as the standard representation.",Exp
Interventions,EX,30,EXSTDY,Study Day of Start of Treatment,Num,,,,Timing,Study day of EXSTDTC relative to DM.RFSTDTC.,Perm
Interventions,EX,31,EXENDY,Study Day of End of Treatment,Num,,,,Timing,Study day of EXENDTC relative to DM.RFSTDTC.,Perm
Interventions,EX,32,EXDUR,Duration of Treatment,Char,,,ISO 8601,Timing,Collected duration of administration. Used only if collected on the CRF and not derived from start and end date/times.,Perm
Interventions,EX,33,EXTPT,Planned Time Point Name,Char,,,,Timing,"1. Text Description of time when administration should occur.
2. This may be represented as an elapsed time relative to a fixed reference point, such as time of last dose. See EXTPTNUM and EXTPTREF.",Perm
Interventions,EX,34,EXTPTNUM,Planned Time Point Number,Num,,,,Timing,Numerical version of EXTPT to aid in sorting.,Perm
Interventions,EX,35,EXELTM,Planned Elapsed Time from Time Point Ref,Char,,,ISO 8601,Timing,Planned elapsed time relative to the planned fixed reference (EXTPTREF). This variable is useful where there are repetitive measures. Not a clock time.,Perm
Interventions,EX,36,EXTPTREF,Time Point Reference,Char,,,,Timing,"Name of the fixed reference point referred to by EXELTM, EXTPTNUM, and EXTPT. Examples: PREVIOUS DOSE, PREVIOUS MEAL.",Perm
Interventions,EX,37,EXRFTDTC,Date/Time of Reference Time Point,Char,,,ISO 8601,Timing,Date/time for a fixed reference time point defined by EXTPTREF.,Perm
Interventions,EC,1,STUDYID,Study Identifier,Char,,,,Identifier,Unique identifier for a study.,Req
Interventions,EC,2,DOMAIN,Domain Abbreviation,Char,,EC,,Identifier,Two-character abbreviation for the domain.,Req
Interventions,EC,3,USUBJID,Unique Subject Identifier,Char,,,,Identifier,Identifier used to uniquely identify a subject across all studies for all applications or submissions involving the product.,Req
Interventions,EC,4,ECSEQ,Sequence Number,Num,,,,Identifier,Sequence Number given to ensure uniqueness of subject records within a domain. May be any valid number.,Req
Interventions,EC,5,ECGRPID,Group ID,Char,,,,Identifier,Used to tie together a block of related records in a single domain for a subject.,Perm
Interventions,EC,6,ECREFID,Reference ID,Char,,,,Identifier,"Internal or external identifier (e.g., kit number, bottle label, vial identifier).",Perm
Interventions,EC,7,ECSPID,Sponsor-Defined Identifier,Char,,,,Identifier,Sponsor-defined reference number. Perhaps pre-printed on the CRF as an explicit line identifier or defined in the sponsor's operational database. Example: Line number on a CRF Page.,Perm
Interventions,EC,8,ECLNKID,Link ID,Char,,,,Identifier,Identifier used to link related records across domains.,Perm
Interventions,EC,9,ECLNKGRP,Link Group ID,Char,,,,Identifier,"Identifier used to link related, grouped records across domains.",Perm
Interventions,EC,10,ECTRT,Name of Treatment,Char,,,,Topic,Name of the intervention treatment known to the subject and/or administrator.,Req
Interventions,EC,11,ECMOOD,Mood,Char,C125923,,,Record Qualifier,"Mode or condition of the record specifying whether the intervention (activity) is intended to happen or has happened. Values align with BRIDG pillars (e.g., scheduled context, performed context) and HL7 activity moods (e.g., intent, event). Examples: ""SCHEDULED"", ""PERFORMED"".",Perm
Interventions,EC,12,ECCAT,Category of Treatment,Char,,,,Grouping Qualifier,Used to define a category of related ECTRT values.,Perm
Interventions,EC,13,ECSCAT,Subcategory of Treatment,Char,,,,Grouping Qualifier,A further categorization of ECCAT values.,Perm
Interventions,EC,14,ECPRESP,Pre-Specified,Char,C66742,,,Variable Qualifier,"Used when a specific intervention is pre-specified. Values should be ""Y"" or null.",Perm
Interventions,EC,15,ECOCCUR,Occurrence,Char,C66742,,,Record Qualifier,"Used to indicate whether a treatment occurred when information about the occurrence is solicited. ECOCCUR = ""N"" when a treatment was not taken, not given, or missed.",Perm
Interventions,EC,16,ECDOSE,Dose,Num,,,,Record Qualifier,Amount of ECTRT when numeric. Not populated when ECDOSTXT is populated.,Exp
Interventions,EC,17,ECDOSTXT,Dose Description,Char,,,,Record Qualifier,"Amount of ECTRT when non-numeric. Dosing amounts or a range of dosing information collected in text form. Example: ""200-400"". Not populated when ECDOSE is populated.",Perm
Interventions,EC,18,ECDOSU,Dose Units,Char,C71620,,,Variable Qualifier,"Units for ECDOSE, ECDOSTOT, or ECDOSTXT.",Exp
Interventions,EC,19,ECDOSFRM,Dose Form,Char,C66726,,,Variable Qualifier,"Dose form for ECTRT. Examples: ""TABLET"", ""LOTION"".",Exp
Interventions,EC,20,ECDOSFRQ,Dosing Frequency per Interval,Char,C71113,,,Variable Qualifier,"Usually expressed as the number of repeated administrations of ECDOSE within a specific time period. Examples: ""Q2H"", ""QD"", ""BID"".",Perm
Interventions,EC,21,ECDOSTOT,Total Daily Dose,Num,,,,Record Qualifier,Total daily dose of ECTRT using the units in ECDOSU. Used when dosing is collected as Total Daily Dose.,Perm
Interventions,EC,22,ECDOSRGM,Intended Dose Regimen,Char,,,,Variable Qualifier,"Text description of the intended schedule or regimen for the Intervention. Example: ""TWO WEEKS ON"", ""TWO WEEKS OFF"".",Perm
Interventions,EC,23,ECROUTE,Route of Administration,Char,C66729,,,Variable Qualifier,"Route of administration for the intervention. Examples: ""ORAL"", ""INTRAVENOUS"".",Perm
Interventions,EC,24,ECLOT,Lot Number,Char,,,,Record Qualifier,Lot Number of the ECTRT product.,Perm
Interventions,EC,25,ECLOC,Location of Dose Administration,Char,C74456,,,Record Qualifier,"Specifies location of administration. Example: ""ARM"", ""LIP"".",Perm
Interventions,EC,26,ECLAT,Laterality,Char,C99073,,,Variable Qualifier,"Qualifier for anatomical location further detailing laterality of the intervention administration. Examples: ""LEFT"", ""RIGHT"".",Perm
Interventions,EC,27,ECDIR,Directionality,Char,C99074,,,Variable Qualifier,"Qualifier for anatomical location further detailing directionality. Examples: ""ANTERIOR"", ""LOWER"", ""PROXIMAL"", ""UPPER"".",Perm
Interventions,EC,28,ECPORTOT,Portion or Totality,Char,C99075,,,Variable Qualifier,"Qualifier for anatomical location further detailing distribution, which means arrangement of, apportioning of. Examples: ""ENTIRE"", ""SINGLE"", ""SEGMENT"".",Perm
Interventions,EC,29,ECFAST,Fasting Status,Char,C66742,,,Record Qualifier,"Indicator used to identify fasting status. Examples: ""Y"", ""N"".",Perm
Interventions,EC,30,ECPSTRG,Pharmaceutical Strength,Num,,,,Record Qualifier,"Amount of an active ingredient expressed quantitatively per dosage unit, per unit of volume, or per unit of weight, according to the pharmaceutical dose form.",Perm
Interventions,EC,31,ECPSTRGU,Pharmaceutical Strength Units,Char,,,,Variable Qualifier,"Unit for ECPSTRG. Examples: ""mg/TABLET"", ""mg/mL"".",Perm
Interventions,EC,32,ECADJ,Reason for Dose Adjustment,Char,,,,Record Qualifier,Describes reason or explanation of why a dose is adjusted.,Perm
Interventions,EC,33,TAETORD,Planned Order of Element within Arm,Num,,,,Timing,Number that gives the planned order of the Element within the Arm.,Perm
Interventions,EC,34,EPOCH,Epoch,Char,C99079,,,Timing,"Trial Epoch of the exposure as collected record. Examples: ""RUN-IN"", ""TREATMENT"".",Perm
Interventions,EC,35,ECSTDTC,Start Date/Time of Treatment,Char,,,ISO 8601,Timing,The date/time when administration of the treatment indicated by ECTRT and ECDOSE began.,Exp
Interventions,EC,36,ECENDTC,End Date/Time of Treatment,Char,,,ISO 8601,Timing,"The date/time when administration of the treatment indicated by ECTRT and ECDOSE ended. For administrations considered given at a point in time (e.g., oral tablet, pre-filled syringe injection), where only an administration date/time is collected, ECSTDTC should be copied to ECENDTC as the standard representation.",Exp
Interventions,EC,37,ECSTDY,Study Day of Start of Treatment,Num,,,,Timing,Study day of ECSTDTC relative to the sponsor-defined DM.RFSTDTC.,Perm
Interventions,EC,38,ECENDY,Study Day of End of Treatment,Num,,,,Timing,Study day of ECENDTC relative to the sponsor-defined DM.RFSTDTC.,Perm
Interventions,EC,39,ECDUR,Duration of Treatment,Char,,,ISO 8601,Timing,Collected duration of administration. Used only if collected on the CRF and not derived from start and end date/times.,Perm
Interventions,EC,40,ECTPT,Planned Time Point Name,Char,,,,Timing,"Text Description of time when administration should occur. This may be represented as an elapsed time relative to a fixed reference point, such as time of last dose. See ECTPTNUM and ECTPTREF.",Perm
Interventions,EC,41,ECTPTNUM,Planned Time Point Number,Num,,,,Timing,Numerical version of ECTPT to aid in sorting.,Perm
Interventions,EC,42,ECELTM,Planned Elapsed Time from Time Point Ref,Char,,,ISO 8601,Timing,Planned elapsed time relative to the planned fixed reference (ECTPTREF). This variable is useful where there are repetitive measures. Not a clock time.,Perm
Interventions,EC,43,ECTPTREF,Time Point Reference,Char,,,,Timing,"Name of the fixed reference point referred to by ECELTM, ECTPTNUM, and ECTPT. Examples: PREVIOUS DOSE, PREVIOUS MEAL.",Perm
Interventions,EC,44,ECRFTDTC,Date/Time of Reference Time Point,Char,,,ISO 8601,Timing,Date/time for a fixed reference time point defined by ECTPTREF.,Perm
Interventions,ML,1,STUDYID,Study Identifier,Char,,,,Identifier,Unique identifier for a study.,Req
Interventions,ML,2,DOMAIN,Domain Abbreviation,Char,,ML,,Identifier,Two-character abbreviation for the domain.,Req
Interventions,ML,3,USUBJID,Unique Subject Identifier,Char,,,,Identifier,Identifier used to uniquely identify a subject across all studies for all applications or submissions involving the product.,Req
Interventions,ML,4,MLSEQ,Sequence Number,Num,,,,Identifier,Sequence Number given to ensure uniqueness of subject records within a domain. May be any valid number.,Req
Interventions,ML,5,MLGRPID,Group ID,Char,,,,Identifier,Used to tie together a block of related records in a single domain for a subject.,Perm
Interventions,ML,6,MLSPID,Sponsor-Defined Identifier,Char,,,,Identifier,Sponsor-defined reference number. Examples: a number pre-printed on the CRF as an explicit line identifier or record identifier defined in the sponsor's operational database.,Perm
Interventions,ML,7,MLTRT,Name of Meal,Char,,,,Topic,Verbatim food product name that is either pre-printed or collected on a CRF.,Req
Interventions,ML,8,MLCAT,Category for Meal,Char,,,,Grouping Qualifier,Used to define a category of MLTRT values.,Perm
Interventions,ML,9,MLSCAT,Subcategory for Meal,Char,,,,Grouping Qualifier,Used to define a further categorization of MLCAT values.,Perm
Interventions,ML,10,MLPRESP,ML Pre-specified,Char,C66742,,,Variable Qualifier,"Used when a specific meal is pre-specified on a CRF. Values should be ""Y"" or null.",Perm
Interventions,ML,11,MLOCCUR,ML Occurrence,Char,C66742,,,Record Qualifier,Used to record whether a pre-specified meal occurred when information about the occurrence of a specific meal is solicited.,Perm
Interventions,ML,12,MLSTAT,Completion Status,Char,C66789,,,Record Qualifier,"Used to indicate when a question about the occurrence of a pre-specified meal was not answered. Should be null or have a value of ""NOT DONE"".",Perm
Interventions,ML,13,MLREASND,Reason Meal Not Collected,Char,,,,Record Qualifier,"Describes the reason a response to a question about the occurrence of a meal was not collected. Used in conjunction with MLSTAT when value is ""NOT DONE"".",Perm
Interventions,ML,14,MLDOSE,Dose,Num,,,,Record Qualifier,Amount of MLTRT consumed. Not populated when MLDOSTXT is populated.,Perm
Interventions,ML,15,MLDOSTXT,Dose Description,Char,,,,Record Qualifier,"Amount description of MLTRT consumed, collected in text form. Not populated when MLDOSE is populated. Examples: ""<1 per day"", ""200-400"".",Perm
Interventions,ML,16,MLDOSU,Dose Units,Char,C71620,,,Variable Qualifier,"Units for MLDOSE, MLDOSTOT, or MLDOSTXT.",Perm
Interventions,ML,17,MLDOSFRM,Dose Form,Char,C66726,,,Variable Qualifier,"Dosage form for MLTRT. Example: ""BAR, CHEWABLE"".",Perm
Interventions,ML,18,VISITNUM,Visit Number,Num,,,,Timing,"Clinical encounter number. Numeric version of VISIT, used for sorting.",Perm
Interventions,ML,19,VISIT,Visit Name,Char,,,,Timing,Protocol-defined description of a clinical encounter.,Perm
Interventions,ML,20,VISITDY,Planned Study Day of Visit,Num,,,,Timing,Planned study day of VISIT. Should be an integer.,Perm
Interventions,ML,21,TAETORD,Planned Order of Element within Arm,Num,,,,Timing,Number that gives the planned order of the Element within the Arm for the Element in which the meal started.,Perm
Interventions,ML,22,EPOCH,Epoch,Char,C99079,,,Timing,Epoch associated with the start date/time of the meal.,Perm
Interventions,ML,23,MLDTC,Date/Time of Collection,Char,,,ISO 8601,Timing,Collection date and time of the meal represented in ISO 8601 character format.,Perm
Interventions,ML,24,MLSTDTC,Start Date/Time of Meal,Char,,,ISO 8601,Timing,Start date/time of the meal represented in ISO 8601 character format.,Perm
Interventions,ML,25,MLENDTC,End Date/Time of Meal,Char,,,ISO 8601,Timing,End date/time of the meal represented in ISO 8601 character format.,Perm
Interventions,ML,26,MLDY,Study Day of Visit/Collection/Exam,Num,,,,Timing,Actual study day of the visit/collection expressed in integer days relative to the sponsor-defined RFSTDTC in Demographics.,Perm
Interventions,ML,27,MLSTDY,Study Day of Start of Meal,Num,,,,Timing,Actual study day of start of the meal expressed in integer days relative to sponsor-defined RFSTDTC in Demographics.,Perm
Interventions,ML,28,MLENDY,Study Day of End of Meal,Num,,,,Timing,Actual study day of end of the meal expressed in integer days relative to the sponsor-defined RFSTDTC in Demographics.,Perm
Interventions,ML,29,MLDUR,Duration of Meal,Char,,,ISO 8601,Timing,Collected duration of the meal represented in ISO 8601 character format. Used only if collected on the CRF and not derived.,Perm
Interventions,ML,30,MLTPT,Planned Time Point Name,Char,,,,Timing,Text description of time when a measurement or observation should be taken as defined in the protocol. This may be represented as an elapsed time relative to a fixed reference point. See MLTPTNUM and MLTPTREF.,Perm
Interventions,ML,31,MLTPTNUM,Planned Time Point Number,Num,,,,Timing,Numeric version of planned time point used in sorting.,Perm
Interventions,ML,32,MLELTM,Planned Elapsed Time from Time Point Ref,Char,,,ISO 8601,Timing,Planned Elapsed time (in ISO 8601) relative to the planned fixed reference (MLTPTREF). This variable is useful when there are repetitive measures. Not a clock time or a date/time variable. Represented as an ISO 8601 duration.,Perm
Interventions,ML,33,MLTPTREF,Time Point Reference,Char,,,,Timing,"Description of the fixed reference point referred to by MLELTM, MLTPTNUM, and MLTPT.",Perm
Interventions,ML,34,MLRFTDTC,Date/Time of Reference Time Point,Char,,,ISO 8601,Timing,Date/time for a fixed reference time point defined by MLTPTREF in ISO 8601 character format.,Perm
Interventions,ML,35,MIDS,Disease Milestone Instance Name,Char,,,,Timing,The name of a specific instance of a Disease Milestone Type (MIDSTYPE) described in the Trial Disease Milestones dataset. This should be unique within a subject. Used only in conjunction with RELMIDS and MIDSDTC.,Perm
Interventions,ML,36,RELMIDS,Temporal Relation to Milestone Instance,Char,,,,Timing,"The temporal relationship of the observation to the Disease Milestone Instance Name in MIDS. Examples: ""IMMEDIATELY BEFORE"", ""AT TIME OF"", ""AFTER"".",Perm
Interventions,ML,37,MIDSDTC,Disease Milestone Instance Date/Time,Char,,,ISO 8601,Timing,"The start date/time of the Disease Milestone Instance Name in MIDS, in ISO 8601 format.",Perm
Interventions,PR,1,STUDYID,Study Identifier,Char,,,,Identifier,Unique identifier for a study.,Req
Interventions,PR,2,DOMAIN,Domain Abbreviation,Char,,PR,,Identifier,Two-character abbreviation for the domain.,Req
Interventions,PR,3,USUBJID,Unique Subject Identifier,Char,,,,Identifier,Identifier used to uniquely identify a subject across all studies for all applications or submissions involving the product.,Req
Interventions,PR,4,PRSEQ,Sequence Number,Num,,,,Identifier,Sequence Number to ensure uniqueness of records within a dataset for a subject. Should be assigned to be in a consistent chronological order.,Req
Interventions,PR,5,PRGRPID,Group ID,Char,,,,Identifier,Used to link together a block of related records within a subject in a domain.,Perm
Interventions,PR,6,PRSPID,Sponsor-Defined Identifier,Char,,,,Identifier,Sponsor-defined identifier. Example: pre-printed line identifier on a CRF or record identifier defined in the sponsor's operational database.,Perm
Interventions,PR,7,PRLNKID,Link ID,Char,,,,Identifier,Used to facilitate identification of relationships between records.,Perm
Interventions,PR,8,PRLNKGRP,Link Group ID,Char,,,,Identifier,Used to facilitate identification of relationships between records.,Perm
Interventions,PR,9,PRTRT,Reported Name of Procedure,Char,,,,Topic,"Name of procedure performed, either pre-printed or collected on a CRF.",Req
Interventions,PR,10,PRDECOD,Standardized Procedure Name,Char,,,,Synonym Qualifier,"Standardized or dictionary-derived name of PRTRT. The sponsor is expected to provide the dictionary name and version used to map the terms in the external codelist element in the Define-XML document. If an intervention term does not have a decode value in the dictionary, then PRDECOD will be null.",Perm
Interventions,PR,11,PRCAT,Category,Char,,,,Grouping Qualifier,Used to define a category of procedure values.,Perm
Interventions,PR,12,PRSCAT,Subcategory,Char,,,,Grouping Qualifier,Used to define a further categorization of PRCAT values.,Perm
Interventions,PR,13,PRPRESP,Pre-specified,Char,C66742,,,Variable Qualifier,"Used when a specific procedure is pre-specified on a CRF. Values should be ""Y"" or null.",Perm
Interventions,PR,14,PROCCUR,Occurrence,Char,C66742,,,Record Qualifier,Used to record whether a pre-specified procedure occurred when information about the occurrence of a specific procedure is solicited.,Perm
Interventions,PR,15,PRINDC,Indication,Char,,,,Record Qualifier,"Denotes the indication for the procedure (e.g., why the procedure was performed).",Perm
Interventions,PR,16,PRDOSE,Dose,Num,,,,Record Qualifier,Amount of PRTRT administered. Not populated when PRDOSTXT is populated.,Perm
Interventions,PR,17,PRDOSTXT,Dose Description,Char,,,,Record Qualifier,"Dosing information collected in text form. Examples: ""<1"", ""200-400"". Not populated when PRDOSE is populated.",Perm
Interventions,PR,18,PRDOSU,Dose Units,Char,C71620,,,Variable Qualifier,"Units for PRDOSE, PRDOSTOT, or PRDOSTXT.",Perm
Interventions,PR,19,PRDOSFRM,Dose Form,Char,C66726,,,Variable Qualifier,Dose form for PRTRT.,Perm
Interventions,PR,20,PRDOSFRQ,Dosing Frequency per Interval,Char,C71113,,,Variable Qualifier,Usually expressed as the number of doses given per a specific interval.,Perm
Interventions,PR,21,PRDOSRGM,Intended Dose Regimen,Char,,,,Variable Qualifier,Text description of the intended schedule or regimen for the procedure.,Perm
Interventions,PR,22,PRROUTE,Route of Administration,Char,C66729,,,Variable Qualifier,Route of administration for PRTRT.,Perm
Interventions,PR,23,PRLOC,Location of Procedure,Char,C74456,,,Record Qualifier,Anatomical location of a procedure.,Perm
Interventions,PR,24,PRLAT,Laterality,Char,C99073,,,Variable Qualifier,Qualifier for anatomical location or specimen further detailing laterality.,Perm
Interventions,PR,25,PRDIR,Directionality,Char,C99074,,,Variable Qualifier,Qualifier for anatomical location or specimen further detailing directionality.,Perm
Interventions,PR,26,PRPORTOT,Portion or Totality,Char,C99075,,,Variable Qualifier,"Qualifier for anatomical location or specimen further detailing the distribution, which means arrangement of, apportioning of.",Perm
Interventions,PR,27,VISITNUM,Visit Number,Num,,,,Timing,"Clinical encounter number. Numeric version of VISIT, used for sorting.",Perm
Interventions,PR,28,VISIT,Visit Name,Char,,,,Timing,Protocol-defined description of a clinical encounter.,Perm
Interventions,PR,29,VISITDY,Planned Study Day of Visit,Num,,,,Timing,Planned study day of VISIT. Should be an integer.,Perm
Interventions,PR,30,TAETORD,Planned Order of Element within Arm,Num,,,,Timing,Number that gives the planned order of the Element within the Arm.,Perm
Interventions,PR,31,EPOCH,Epoch,Char,C99079,,,Timing,Epoch associated with the start date/time of the procedure.,Perm
Interventions,PR,32,PRSTDTC,Start Date/Time of Procedure,Char,,,ISO 8601,Timing,Start date/time of the procedure represented in ISO 8601 character format.,Exp
Interventions,PR,33,PRENDTC,End Date/Time of Procedure,Char,,,ISO 8601,Timing,End date/time of the procedure represented in ISO 8601 character format.,Perm
Interventions,PR,34,PRSTDY,Study Day of Start of Procedure,Num,,,,Timing,Study day of start of procedure expressed in integer days relative to the sponsor-defined RFSTDTC in Demographics.,Perm
Interventions,PR,35,PRENDY,Study Day of End of Procedure,Num,,,,Timing,Study day of end of procedure expressed in integer days relative to the sponsor-defined RFSTDTC in Demographics.,Perm
Interventions,PR,36,PRDUR,Duration of Procedure,Char,,,ISO 8601,Timing,Collected duration of a procedure represented in ISO 8601 character format. Used only if collected on the CRF and not derived from start and end date/times.,Perm
Interventions,PR,37,PRTPT,Planned Time Point Name,Char,,,,Timing,"Text description of time when a procedure should be performed. This may be represented as an elapsed time relative to a fixed reference point, such as time of last dose. See PRTPTNUM and PRTPTREF.",Perm
Interventions,PR,38,PRTPTNUM,Planned Time Point Number,Num,,,,Timing,Numerical version of planned time point used in sorting.,Perm
Interventions,PR,39,PRELTM,Planned Elapsed Time from Time Point Ref,Char,,,ISO 8601,Timing,"Planned elapsed time in ISO 8601 format relative to a planned fixed reference (PRTPTREF). This variable is useful where there are repetitive measures. Not a clock time or a date/time variable, but an interval, represented as ISO duration.",Perm
Interventions,PR,40,PRTPTREF,Time Point Reference,Char,,,,Timing,"Description of the fixed reference point referred to by PRELTM, PRTPTNUM, and PRTPT.",Perm
Interventions,PR,41,PRRFTDTC,Date/Time of Reference Time Point,Char,,,ISO 8601,Timing,Date/time for a fixed reference time point defined by PRTRTREF in ISO 8601 character format.,Perm
Interventions,PR,42,PRSTRTPT,Start Relative to Reference Time Point,Char,C66728,,,Timing,"Identifies the start of the observation as being before or after the sponsor-defined reference time point defined by variable PRSTTPT.
Not all values of the codelist are allowable for this variable. See Section 4.4.7, Use of Relative Timing Variables.",Perm
Interventions,PR,43,PRSTTPT,Start Reference Time Point,Char,,,,Timing,"Description or date/time in ISO 8601 character format of the sponsor-defined reference point referred to by PRSTRTPT. Examples: ""2003-12-15"" or ""VISIT 1"".",Perm
Interventions,PR,44,PRENRTPT,End Relative to Reference Time Point,Char,C66728,,,Timing,"Identifies the end of the observation as being before or after the sponsor-defined reference time point defined by variable PRENTPT.
Not all values of the codelist are allowable for this variable. See Section 4.4.7, Use of Relative Timing Variables.",Perm
Interventions,PR,45,PRENTPT,End Reference Time Point,Char,,,,Timing,"Description or date/time in ISO 8601 character format of the sponsor-defined reference point referred to by PRENRTPT. Examples: ""2003-12-25"" or ""VISIT 2"".",Perm
Interventions,SU,1,STUDYID,Study Identifier,Char,,,,Identifier,Unique identifier for a study.,Req
Interventions,SU,2,DOMAIN,Domain Abbreviation,Char,,SU,,Identifier,Two-character abbreviation for the domain.,Req
Interventions,SU,3,USUBJID,Unique Subject Identifier,Char,,,,Identifier,Identifier used to uniquely identify a subject across all studies for all applications or submissions involving the product.,Req
Interventions,SU,4,SUSEQ,Sequence Number,Num,,,,Identifier,Sequence Number given to ensure uniqueness of subject records within a domain. May be any valid number.,Req
Interventions,SU,5,SUGRPID,Group ID,Char,,,,Identifier,Used to tie together a block of related records in a single domain for a subject.,Perm
Interventions,SU,6,SUSPID,Sponsor-Defined Identifier,Char,,,,Identifier,Sponsor-defined reference number. Perhaps pre-printed on the CRF as an explicit line identifier or defined in the sponsor's operational database. Example: Line number on a Tobacco & Alcohol use CRF page.,Perm
Interventions,SU,7,SUTRT,Reported Name of Substance,Char,,,,Topic,"Substance name. Examples: ""Cigarettes"", ""Coffee"".",Req
Interventions,SU,8,SUMODIFY,Modified Substance Name,Char,,,,Synonym Qualifier,"If SUTRT is modified, then the modified text is placed here.",Perm
Interventions,SU,9,SUDECOD,Standardized Substance Name,Char,,,,Synonym Qualifier,Standardized or dictionary-derived text description of SUTRT or SUMODIFY if the sponsor chooses to code the substance use. The sponsor is expected to provide the dictionary name and version used to map the terms utilizing the external codelist element in the Define-XML document.,Perm
Interventions,SU,10,SUCAT,Category for Substance Use,Char,,,,Grouping Qualifier,"Used to define a category of related records. Examples: ""TOBACCO"", ""ALCOHOL"", or ""CAFFEINE"".",Perm
Interventions,SU,11,SUSCAT,Subcategory for Substance Use,Char,,,,Grouping Qualifier,"A further categorization of substance use. Examples: ""CIGARS"", ""CIGARETTES"", ""BEER"", ""WINE"".",Perm
Interventions,SU,12,SUPRESP,SU Pre-Specified,Char,C66742,,,Variable Qualifier,"Used to indicate whether (""Y""/null) information about the use of a specific substance was solicited on the CRF.",Perm
Interventions,SU,13,SUOCCUR,SU Occurrence,Char,C66742,,,Record Qualifier,"When the use of specific substances is solicited, SUOCCUR is used to indicate whether or not (""Y""/""N"") a particular pre-specified substance was used. Values are null for substances not specifically solicited.",Perm
Interventions,SU,14,SUSTAT,Completion Status,Char,C66789,,,Record Qualifier,"When the use of pre-specified substances is solicited, the completion status indicates that there was no response to the question about the pre-specified substance. When there is no pre-specified list on the CRF, then the completion status indicates that substance use was not assessed for the subject.",Perm
Interventions,SU,15,SUREASND,Reason Substance Use Not Collected,Char,,,,Record Qualifier,"Describes the reason substance use was not collected. Used in conjunction with SUSTAT when value of SUSTAT is ""NOT DONE"".",Perm
Interventions,SU,16,SUCLAS,Substance Use Class,Char,,,,Variable Qualifier,"Substance use class. May be obtained from coding. When coding to a single class, populate with class value. If using a dictionary and coding to multiple classes, then follow Section 4.2.8.3, Multiple Values for a Non-Result Qualifier Variable, or omit SUCLAS.",Perm
Interventions,SU,17,SUCLASCD,Substance Use Class Code,Char,,,,Variable Qualifier,Code corresponding to SUCLAS. May be obtained from coding.,Perm
Interventions,SU,18,SUDOSE,Substance Use Consumption,Num,,,,Record Qualifier,Amount of SUTRT consumed. Not populated if SUDOSTXT is populated.,Perm
Interventions,SU,19,SUDOSTXT,Substance Use Consumption Text,Char,,,,Record Qualifier,Substance use consumption amounts or a range of consumption information collected in text form. Not populated if SUDOSE is populated.,Perm
Interventions,SU,20,SUDOSU,Consumption Units,Char,C71620,,,Variable Qualifier,"Units for SUDOSE, SUDOSTOT, or SUDOSTXT. Examples: ""OUNCES"", ""CIGARETTE EQUIVALENTS"", ""GRAMS"".",Perm
Interventions,SU,21,SUDOSFRM,Dose Form,Char,,,,Variable Qualifier,"Dose form for SUTRT. Examples: ""INJECTABLE"", ""LIQUID"", or ""POWDER"".",Perm
Interventions,SU,22,SUDOSFRQ,Use Frequency Per Interval,Char,C71113,,,Variable Qualifier,"Usually expressed as the number of repeated administrations of SUDOSE within a specific time period. Example: ""Q24H"" (every day).",Perm
Interventions,SU,23,SUDOSTOT,Total Daily Consumption,Num,,,,Record Qualifier,"Total daily use of SUTRT using the units in SUDOSU. Used when dosing is collected as Total Daily Dose. If sponsor needs to aggregate the data over a period other than daily, then the aggregated total could be recorded in a Supplemental Qualifier variable.",Perm
Interventions,SU,24,SUROUTE,Route of Administration,Char,C66729,,,Variable Qualifier,"Route of administration for SUTRT. Examples: ""ORAL"", ""INTRAVENOUS"".",Perm
Interventions,SU,25,TAETORD,Planned Order of Element within Arm,Num,,,,Timing,Number that gives the planned order of the Element within the Arm for the Element in which the substance use started. Null for substances that started before study participation.,Perm
Interventions,SU,26,EPOCH,Epoch,Char,C99079,,,Timing,Epoch associated with the start date/time of the substance use. Null for substances that started before study participation.,Perm
Interventions,SU,27,SUSTDTC,Start Date/Time of Substance Use,Char,,,ISO 8601,Timing,Start date/time of the substance use represented in ISO 8601 character format.,Perm
Interventions,SU,28,SUENDTC,End Date/Time of Substance Use,Char,,,ISO 8601,Timing,End date/time of the substance use represented in ISO 8601 character format.,Perm
Interventions,SU,29,SUSTDY,Study Day of Start of Substance Use,Num,,,,Timing,Study day of start of substance use relative to the sponsor-defined RFSTDTC.,Perm
Interventions,SU,30,SUENDY,Study Day of End of Substance Use,Num,,,,Timing,Study day of end of substance use relative to the sponsor-defined RFSTDTC.,Perm
Interventions,SU,31,SUDUR,Duration of Substance Use,Char,,,ISO 8601,Timing,Collected duration of substance use in ISO 8601 format. Used only if collected on the CRF and not derived from start and end date/times.,Perm
Interventions,SU,32,SUSTRF,Start Relative to Reference Period,Char,C66728,,,Timing,"Describes the start of the substance use relative to the sponsor-defined reference period. The sponsor-defined reference period is a continuous period of time defined by a discrete starting point and a discrete ending point (represented by RFSTDTC and RFENDTC in Demographics). If information such as ""PRIOR"" was collected, this information may be translated into SUSTRF.
Not all values of the codelist are allowable for this variable. See Section 4.4.7, Use of Relative Timing Variables.",Perm
Interventions,SU,33,SUENRF,End Relative to Reference Period,Char,C66728,,,Timing,"Describes the end of the substance use with relative to the sponsor-defined reference period. The sponsor-defined reference period is a continuous period of time defined by a discrete starting point and a discrete ending point (represented by RFSTDTC and RFENDTC in Demographics). If information such as ""PRIOR"", ""ONGOING"", or ""CONTINUING"" was collected, this information may be translated into SUENRF.
Not all values of the codelist are allowable for this variable. See Section 4.4.7, Use of Relative Timing Variables.",Perm
Interventions,SU,34,SUSTRTPT,Start Relative to Reference Time Point,Char,C66728,,,Timing,"Identifies the start of the substance as being before or after the reference time point defined by variable SUSTTPT.
Not all values of the codelist are allowable for this variable. See Section 4.4.7 , Use of Relative Timing Variables.",Perm
Interventions,SU,35,SUSTTPT,Start Reference Time Point,Char,,,,Timing,"Description or date/time in ISO 8601 character format of the reference point referred to by SUSTRTPT. Examples: ""2003-12-15"" or ""VISIT 1"".",Perm
Interventions,SU,36,SUENRTPT,End Relative to Reference Time Point,Char,C66728,,,Timing,"Identifies the end of the substance as being before or after the reference time point defined by variable SUENTPT.
Not all values of the codelist are allowable for this variable. See Section 4.4.7 , Use of Relative Timing Variables.",Perm
Interventions,SU,37,SUENTPT,End Reference Time Point,Char,,,,Timing,"Description or date/time in ISO 8601 character format of the reference point referred to by SUENRTPT. Examples: ""2003-12-25"" or ""VISIT 2"".",Perm
Events,AE,1,STUDYID,Study Identifier,Char,,,,Identifier,Unique identifier for a study.,Req
Events,AE,2,DOMAIN,Domain Abbreviation,Char,,AE,,Identifier,Two-character abbreviation for the domain.,Req
Events,AE,3,USUBJID,Unique Subject Identifier,Char,,,,Identifier,Identifier used to uniquely identify a subject across all studies for all applications or submissions involving the product.,Req
Events,AE,4,AESEQ,Sequence Number,Num,,,,Identifier,Sequence number given to ensure uniqueness of subject records within a domain. May be any valid number.,Req
Events,AE,5,AEGRPID,Group ID,Char,,,,Identifier,Used to tie together a block of related records in a single domain for a subject.,Perm
Events,AE,6,AEREFID,Reference ID,Char,,,,Identifier,Internal or external identifier such as a serial number on an SAE reporting form.,Perm
Events,AE,7,AESPID,Sponsor-Defined Identifier,Char,,,,Identifier,Sponsor-defined identifier. It may be preprinted on the CRF as an explicit line identifier or defined in the sponsor's operational database. Example: Line number on an Adverse Events page.,Perm
Events,AE,8,AETERM,Reported Term for the Adverse Event,Char,,,,Topic,Verbatim name of the event.,Req
Events,AE,9,AEMODIFY,Modified Reported Term,Char,,,,Synonym Qualifier,"If AETERM is modified to facilitate coding, then AEMODIFY will contain the modified text.",Perm
Events,AE,10,AELLT,Lowest Level Term,Char,,,MedDRA,Variable Qualifier,Dictionary-derived text description of the Lowest Level Term.,Exp
Events,AE,11,AELLTCD,Lowest Level Term Code,Num,,,MedDRA,Variable Qualifier,Dictionary-derived code for the Lowest Level Term.,Exp
Events,AE,12,AEDECOD,Dictionary-Derived Term,Char,,,MedDRA,Synonym Qualifier,Dictionary-derived text description of AETERM or AEMODIFY. Equivalent to the Preferred Term (PT in MedDRA). The sponsor is expected to provide the dictionary name and version used to map the terms utilizing the external codelist element in the Define-XML document.,Req
Events,AE,13,AEPTCD,Preferred Term Code,Num,,,MedDRA,Variable Qualifier,Dictionary-derived code for the Preferred Term.,Exp
Events,AE,14,AEHLT,High Level Term,Char,,,MedDRA,Variable Qualifier,Dictionary-derived text description of the High Level Term for the primary System Organ Class.,Exp
Events,AE,15,AEHLTCD,High Level Term Code,Num,,,MedDRA,Variable Qualifier,Dictionary-derived code for the High Level Term for the primary System Organ Class.,Exp
Events,AE,16,AEHLGT,High Level Group Term,Char,,,MedDRA,Variable Qualifier,Dictionary-derived text description of the High Level Group Term for the primary System Organ Class.,Exp
Events,AE,17,AEHLGTCD,High Level Group Term Code,Num,,,MedDRA,Variable Qualifier,Dictionary-derived code for the High Level Group Term for the primary System Organ Class.,Exp
Events,AE,18,AECAT,Category for Adverse Event,Char,,,,Grouping Qualifier,"Used to define a category of related records. Example: ""BLEEDING"", ""NEUROPSYCHIATRIC"".",Perm
Events,AE,19,AESCAT,Subcategory for Adverse Event,Char,,,,Grouping Qualifier,"A further categorization of adverse event. Example: ""NEUROLOGIC"".",Perm
Events,AE,20,AEPRESP,Pre-Specified Adverse Event,Char,C66742,,,Variable Qualifier,"A value of ""Y"" indicates that this adverse event was pre-specified on the CRF. Values are null for spontaneously reported events (i.e., those collected as free-text verbatim terms).",Perm
Events,AE,21,AEBODSYS,Body System or Organ Class,Char,,,,Record Qualifier,"Dictionary derived. Body system or organ class used by the sponsor from the coding dictionary (e.g., MedDRA). When using a multi-axial dictionary such as MedDRA, this should contain the SOC used for the sponsor's analyses and summary tables, which may not necessarily be the primary SOC.",Exp
Events,AE,22,AEBDSYCD,Body System or Organ Class Code,Num,,,MedDRA,Variable Qualifier,"Dictionary derived. Code for the body system or organ class used by the sponsor. When using a multi-axial dictionary such as MedDRA, this should contain the SOC used for the sponsor's analyses and summary tables, which may not necessarily be the primary SOC.",Exp
Events,AE,23,AESOC,Primary System Organ Class,Char,,,MedDRA,Variable Qualifier,Dictionary-derived text description of the primary System Organ Class. Will be the same as AEBODSYS if the primary SOC was used for analysis.,Exp
Events,AE,24,AESOCCD,Primary System Organ Class Code,Num,,,MedDRA,Variable Qualifier,Dictionary-derived code for the primary System Organ Class. Will be the same as AEBDSYCD if the primary SOC was used for analysis.,Exp
Events,AE,25,AELOC,Location of Event,Char,C74456,,,Record Qualifier,"Describes anatomical location relevant for the event (e.g., ""ARM"" for skin rash).",Perm
Events,AE,26,AESEV,Severity/Intensity,Char,C66769,,,Record Qualifier,"The severity or intensity of the event. Examples: ""MILD"", ""MODERATE"", ""SEVERE"".",Perm
Events,AE,27,AESER,Serious Event,Char,C66742,,,Record Qualifier,"Is this a serious event? Valid values are ""Y"" and ""N"".",Exp
Events,AE,28,AEACN,Action Taken with Study Treatment,Char,C66767,,,Record Qualifier,"Describes changes to the study treatment as a result of the event. AEACN is specifically for the relationship to study treatment. AEACNOTH is for actions unrelated to dose adjustments of study treatment. Examples of AEACN values include ICH E2B values: ""DRUG WITHDRAWN"", ""DOSE REDUCED"", ""DOSE INCREASED"", ""DOSE NOT CHANGED"", ""UNKNOWN"" or ""NOT APPLICABLE"".",Exp
Events,AE,29,AEACNOTH,Other Action Taken,Char,,,,Record Qualifier,"Describes other actions taken as a result of the event that are unrelated to dose adjustments of study treatment. Usually reported as free text. Example: ""TREATMENT UNBLINDED. PRIMARY CARE PHYSICIAN NOTIFIED"".",Perm
Events,AE,30,AEREL,Causality,Char,,,,Record Qualifier,"Records the investigator's opinion as to the causality of the event to the treatment. ICH E2A and E2B examples include ""NOT RELATED"", ""UNLIKELY RELATED"", ""POSSIBLY RELATED"", ""RELATED"". Controlled Terminology may be defined in the future. Check with regulatory authority for population of this variable.",Exp
Events,AE,31,AERELNST,Relationship to Non-Study Treatment,Char,,,,Record Qualifier,"Records the investigator's opinion as to whether the event may have been due to a treatment other than study drug. May be reported as free text. Example: ""MORE LIKELY RELATED TO ASPIRIN USE"".",Perm
Events,AE,32,AEPATT,Pattern of Adverse Event,Char,,,,Record Qualifier,"Used to indicate the pattern of the event over time. Examples: ""INTERMITTENT"", ""CONTINUOUS"", ""SINGLE EVENT"".",Perm
Events,AE,33,AEOUT,Outcome of Adverse Event,Char,C66768,,,Record Qualifier,Description of the outcome of an event.,Perm
Events,AE,34,AESCAN,Involves Cancer,Char,C66742,,,Record Qualifier,"Was the serious event associated with the development of cancer? Valid values are ""Y"" and ""N"". This is a legacy seriousness criterion. It is not included in ICH E2A.",Perm
Events,AE,35,AESCONG,Congenital Anomaly or Birth Defect,Char,C66742,,,Record Qualifier,"Was the serious event associated with congenital anomaly or birth defect? Valid values are ""Y"" and ""N"".",Perm
Events,AE,36,AESDISAB,Persist or Signif Disability/Incapacity,Char,C66742,,,Record Qualifier,"Did the serious event result in persistent or significant disability/incapacity? Valid values are ""Y"" and ""N"".",Perm
Events,AE,37,AESDTH,Results in Death,Char,C66742,,,Record Qualifier,"Did the serious event result in death? Valid values are ""Y"" and ""N"".",Perm
Events,AE,38,AESHOSP,Requires or Prolongs Hospitalization,Char,C66742,,,Record Qualifier,"Did the serious event require or prolong hospitalization? Valid values are ""Y"" and ""N"".",Perm
Events,AE,39,AESLIFE,Is Life Threatening,Char,C66742,,,Record Qualifier,"Was the serious event life threatening? Valid values are ""Y"" and ""N"".",Perm
Events,AE,40,AESOD,Occurred with Overdose,Char,C66742,,,Record Qualifier,"Did the serious event occur with an overdose? Valid values are ""Y"" and ""N"". This is a legacy seriousness criterion. It is not included in ICH E2A.",Perm
Events,AE,41,AESMIE,Other Medically Important Serious Event,Char,C66742,,,Record Qualifier,"Do additional categories for seriousness apply? Valid values are ""Y"" and ""N"".",Perm
Events,AE,42,AECONTRT,Concomitant or Additional Trtmnt Given,Char,C66742,,,Record Qualifier,"Was another treatment given because of the occurrence of the event? Valid values are ""Y"" and ""N"".",Perm
Events,AE,43,AETOXGR,Standard Toxicity Grade,Char,,,,Record Qualifier,"Toxicity grade according to a standard toxicity scale such as Common Terminology Criteria for Adverse Events v3.0 (CTCAE). Sponsor should specify name of the scale and version used in the metadata (see Assumption 6d). If value is from a numeric scale, represent only the number (e.g., ""2"" and not ""Grade 2"").",Perm
Events,AE,44,TAETORD,Planned Order of Element within Arm,Num,,,,Timing,Number that gives the planned order of the Element within the Arm.,Perm
Events,AE,45,EPOCH,Epoch,Char,C99079,,,Timing,"Epoch associated with the start date/time of the adverse event. Examples: ""SCREENING"", ""TREATMENT"", ""FOLLOW-UP"".",Perm
Events,AE,46,AESTDTC,Start Date/Time of Adverse Event,Char,,,ISO 8601,Timing,Start date/time of the adverse event represented in ISO 8601 character format.,Exp
Events,AE,47,AEENDTC,End Date/Time of Adverse Event,Char,,,ISO 8601,Timing,End date/time of the adverse event represented in ISO 8601 character format.,Exp
Events,AE,48,AESTDY,Study Day of Start of Adverse Event,Num,,,,Timing,Study day of start of adverse event relative to the sponsor-defined RFSTDTC.,Perm
Events,AE,49,AEENDY,Study Day of End of Adverse Event,Num,,,,Timing,Study day of end of event relative to the sponsor-defined RFSTDTC.,Perm
Events,AE,50,AEDUR,Duration of Adverse Event,Char,,,ISO 8601,Timing,"Collected duration and unit of an adverse event. Used only if collected on the CRF and not derived from start and end date/times. Example: ""P1DT2H"" (for 1 day, 2 hours).",Perm
Events,AE,51,AEENRF,End Relative to Reference Period,Char,C66728,,,Timing,"Describes the end of the event relative to the sponsor-defined reference period. The sponsor-defined reference period is a continuous period of time defined by a discrete starting point (RFSTDTC) and a discrete ending point (RFENDTC) of the trial.
Not all values of the codelist are allowable for this variable. See Section 4.4.7, Use of Relative Timing Variables.",Perm
Events,AE,52,AEENRTPT,End Relative to Reference Time Point,Char,C66728,,,Timing,"Identifies the end of the event as being before or after the reference time point defined by variable AEENTPT.
Not all values of the codelist are allowable for this variable. See Section 4.4.7, Use of Relative Timing Variables.",Perm
Events,AE,53,AEENTPT,End Reference Time Point,Char,,,,Timing,"Description of date/time in ISO 8601 character format of the reference point referred to by AEENRTPT. Examples: ""2003-12-25"" or ""VISIT 2"".",Perm
Events,CE,1,STUDYID,Study Identifier,Char,,,,Identifier,Unique identifier for a study.,Req
Events,CE,2,DOMAIN,Domain Abbreviation,Char,,CE,,Identifier,Two-character abbreviation for the domain.,Req
Events,CE,3,USUBJID,Unique Subject Identifier,Char,,,,Identifier,Identifier used to uniquely identify a subject across all studies for all applications or submissions involving the product.,Req
Events,CE,4,CESEQ,Sequence Number,Num,,,,Identifier,Sequence Number given to ensure uniqueness of subject records within adomain. May be any valid number.,Req
Events,CE,5,CEGRPID,Group ID,Char,,,,Identifier,Used to link together a block of related records for a subject within a domain.,Perm
Events,CE,6,CEREFID,Reference ID,Char,,,,Identifier,"Internal or external identifier such as lab specimen ID, or UUID for an ECG waveform or a medical image.",Perm
Events,CE,7,CESPID,Sponsor-Defined Identifier,Char,,,,Identifier,Sponsor-defined identifier.,Perm
Events,CE,8,CETERM,Reported Term for the Clinical Event,Char,,,,Topic,Term for the medical condition or event. Most likely preprinted on CRF.,Req
Events,CE,9,CEDECOD,Dictionary-Derived Term,Char,,,,Synonym Qualifier,Controlled terminology for the name of the clinical event. The sponsor is expected to provide the dictionary name and version used to map the terms utilizing the external codelist element in the Define-XML document.,Perm
Events,CE,10,CECAT,Category for the Clinical Event,Char,,,,Grouping Qualifier,Used to define a category of related records.,Perm
Events,CE,11,CESCAT,Subcategory for the Clinical Event,Char,,,,Grouping Qualifier,A further categorization of the condition or event.,Perm
Events,CE,12,CEPRESP,Clinical Event Pre-specified,Char,C66742,,,Variable Qualifier,"Used to indicate whether the Event in CETERM was pre-specified. Value is ""Y"" for pre-specified events and null for spontaneously reported events.",Perm
Events,CE,13,CEOCCUR,Clinical Event Occurrence,Char,C66742,,,Record Qualifier,"Used when the occurrence of specific events is solicited, to indicate whether or not a clinical event occurred. Values are null for spontaneously reported events.",Perm
Events,CE,14,CESTAT,Completion Status,Char,C66789,,,Record Qualifier,The status indicates that a question from a pre-specified list was not answered.,Perm
Events,CE,15,CEREASND,Reason Clinical Event Not Collected,Char,,,,Record Qualifier,"Describes the reason clinical event data was not collected. Used in conjunction with CESTAT when value is ""NOT DONE"".",Perm
Events,CE,16,CEBODSYS,Body System or Organ Class,Char,,,,Record Qualifier,"Dictionary-derived. Body system or organ class that is involved in an event or measurement from a standard hierarchy (e.g., MedDRA). When using a multiaxial dictionary such as MedDRA, this should contain the SOC used for the sponsor's analyses and summary tables which may not necessarily be the primary SOC.",Perm
Events,CE,17,CESEV,Severity/Intensity,Char,,,,Record Qualifier,"The severity or intensity of the event. Examples: ""MILD"", ""MODERATE"", ""SEVERE"".",Perm
Events,CE,18,TAETORD,Planned Order of Element within Arm,Num,,,,Timing,Number that gives the planned order of the Element within the Arm for the Element in which the clinical event started.,Perm
Events,CE,19,EPOCH,Epoch,Char,C99079,,,Timing,Epoch associated with the start date/time of the clinical event.,Perm
Events,CE,20,CEDTC,Date/Time of Event Collection,Char,,,ISO 8601,Timing,Collection date and time for the clinical event observation represented in ISO 8601 character format.,Perm
Events,CE,21,CESTDTC,Start Date/Time of Clinical Event,Char,,,ISO 8601,Timing,Start date/time of the clinical event represented in ISO 8601 character format.,Perm
Events,CE,22,CEENDTC,End Date/Time of Clinical Event,Char,,,ISO 8601,Timing,"End date/time of the clinical event, represented in ISO 8601 character format.",Perm
Events,CE,23,CEDY,Study Day of Event Collection,Num,,,,Timing,"1. Study day of clinical event collection, measured as integer days.
2. Algorithm for calculations must be relative to the sponsor-defined RFSTDTC variable in Demographics. This formula should be consistent across the submission.",Perm
Events,CE,24,CESTDY,Study Day of Start of Event,Num,,,,Timing,Actual study day of start of the clinical event expressed in integer days relative to the sponsor-defined RFSTDTC in Demographics.,Perm
Events,CE,25,CEENDY,Study Day of End of Event,Num,,,,Timing,Actual study day of end of the clinical event expressed in integer days relative to the sponsor-defined RFSTDTC in Demographics.,Perm
Events,CE,26,CESTRF,Start Relative to Reference Period,Char,C66728,,,Timing,"Describes the start of the clinical event relative to the sponsor-defined reference period. The sponsor-defined reference period is a continuous period of time defined by a discrete starting point and a discrete ending point (represented by RFSTDTC and RFENDTC in Demographics).
Not all values of the codelist are allowable for this variable. See Section 4.4.7, Use of Relative Timing Variables.",Perm
Events,CE,27,CEENRF,End Relative to Reference Period,Char,C66728,,,Timing,"Describes the end of the event relative to the sponsor-defined reference period. The sponsor-defined reference period is a continuous period of time defined by a discrete starting point and a discrete ending point (represented by RFSTDTC and RFENDTC in Demographics).
Not all values of the codelist are allowable for this variable. See Section 4.4.7, Use of Relative Timing Variables.",Perm
Events,CE,28,CESTRTPT,Start Relative to Reference Time Point,Char,C66728,,,Timing,"Identifies the start of the observation as being before or after the reference time point defined by variable CESTTPT.
Not all values of the codelist are allowable for this variable. See Section 4.4.7, Use of Relative Timing Variables.",Perm
Events,CE,29,CESTTPT,Start Reference Time Point,Char,,,,Timing,"Description or date/time in ISO 8601 character format of the sponsor-defined reference point referred to by --STRTPT. Examples: ""2003-12-15"" or ""VISIT 1"".",Perm
Events,CE,30,CEENRTPT,End Relative to Reference Time Point,Char,C66728,,,Timing,"Identifies the end of the observation as being before or after the sponsor-defined reference time point defined by variable CEENTPT.
Not all values of the codelist are allowable for this variable. See Section 4.4.7, Use of Relative Timing Variables.",Perm
Events,CE,31,CEENTPT,End Reference Time Point,Char,,,,Timing,"Description or date/time in ISO 8601 character format of the reference point referred to by CEENRTPT. Examples: ""2003-12-25"" or ""VISIT 2"".",Perm
Events,DS,1,STUDYID,Study Identifier,Char,,,,Identifier,Unique identifier for a study.,Req
Events,DS,2,DOMAIN,Domain Abbreviation,Char,,DS,,Identifier,Two-character abbreviation for the domain.,Req
Events,DS,3,USUBJID,Unique Subject Identifier,Char,,,,Identifier,Identifier used to uniquely identify a subject across all studies for all applications or submissions involving the product.,Req
Events,DS,4,DSSEQ,Sequence Number,Num,,,,Identifier,Sequence Number given to ensure uniqueness of subject records within a domain. May be any valid number.,Req
Events,DS,5,DSGRPID,Group ID,Char,,,,Identifier,Used to tie together a block of related records in a single domain for a subject.,Perm
Events,DS,6,DSREFID,Reference ID,Char,,,,Identifier,Internal or external identifier.,Perm
Events,DS,7,DSSPID,Sponsor-Defined Identifier,Char,,,,Identifier,Sponsor-defined reference number. Perhaps preprinted on the CRF as an explicit line identifier or defined in the sponsor's operational database. Example: Line number on a Disposition page.,Perm
Events,DS,8,DSTERM,Reported Term for the Disposition Event,Char,,,,Topic,"Verbatim name of the event or protocol milestone. Some terms in DSTERM will match DSDECOD, but others, such as ""Subject moved"" will map to controlled terminology in DSDECOD, such as ""LOST TO FOLLOW-UP"".",Req
Events,DS,9,DSDECOD,Standardized Disposition Term,Char,C114118,,,Synonym Qualifier,"Controlled terminology for the name of disposition event or protocol milestone. Examples of protocol milestones: ""INFORMED CONSENT OBTAINED"", ""RANDOMIZED"". There are separate codelists used for DSDECOD where the choice depends on the value of DSCAT. Codelist ""NCOMPLT"" is used for disposition events and codelist ""PROTMLST"" is used for protocol milestones. The variable may be subject to controlled terminology for other events.",Req
Events,DS,10,DSCAT,Category for Disposition Event,Char,C74558,,,Grouping Qualifier,Used to define a category of related records.,Exp
Events,DS,11,DSSCAT,Subcategory for Disposition Event,Char,,,,Grouping Qualifier,"A further categorization of DSCAT (e.g., ""STUDY PARTICIPATION"", ""STUDY TREATMENT"" when DSCAT = ""DISPOSITION EVENT"").",Perm
Events,DS,12,EPOCH,Epoch,Char,C99079,,,Timing,Epoch associated with the start date/time of the event.,Perm
Events,DS,13,DSDTC,Date/Time of Collection,Char,,,ISO 8601,Timing,Collection date and time of the disposition observation represented in ISO 8601 character format.,Perm
Events,DS,14,DSSTDTC,Start Date/Time of Disposition Event,Char,,,ISO 8601,Timing,Start date/time of the disposition event in ISO 8601 character format.,Exp
Events,DS,15,DSDY,Study Day of Collection,Num,,,,Timing,Start date/time of the disposition event in ISO 8601 character format.,Exp
Events,DS,16,DSSTDY,Study Day of Start of Disposition Event,Num,,,,Timing,Study day of start of event relative to the sponsor-defined RFSTDTC.,Perm
Events,DV,1,STUDYID,Study Identifier,Char,,,,Identifier,Unique identifier for a study.,Req
Events,DV,2,DOMAIN,Domain Abbreviation,Char,,DV,,Identifier,Two-character abbreviation for the domain.,Req
Events,DV,3,USUBJID,Unique Subject Identifier,Char,,,,Identifier,Identifier used to uniquely identify a subject across all studies for all applications or submissions involving the product.,Req
Events,DV,4,DVSEQ,Sequence Number,Num,,,,Identifier,Sequence Number given to ensure uniqueness of subject records within a domain. May be any valid number.,Req
Events,DV,5,DVREFID,Reference ID,Char,,,,Identifier,Internal or external identifier.,Perm
Events,DV,6,DVSPID,Sponsor-Defined Identifier,Char,,,,Identifier,Sponsor-defined reference number. Perhaps preprinted on the CRF as an explicit line identifier or defined in the sponsor's operational database. Example: Line number on a CRF page.,Perm
Events,DV,7,DVTERM,Protocol Deviation Term,Char,,,,Topic,"Verbatim name of the protocol deviation criterion. Example: ""IVRS PROCESS DEVIATION - NO DOSE CALL PERFORMED"". The DVTERM values will map to the controlled terminology in DVDECOD, such as ""TREATMENT DEVIATION"".",Req
Events,DV,8,DVDECOD,Protocol Deviation Coded Term,Char,,,,Synonym Qualifier,"Controlled terminology for the name of the protocol deviation. Examples: ""SUBJECT NOT WITHDRAWN AS PER PROTOCOL"", ""SELECTION CRITERIA NOT MET"", ""EXCLUDED CONCOMITANT MEDICATION"", ""TREATMENT DEVIATION"".",Perm
Events,DV,9,DVCAT,Category for Protocol Deviation,Char,,,,Grouping Qualifier,Category of the protocol deviation criterion.,Perm
Events,DV,10,DVSCAT,Subcategory for Protocol Deviation,Char,,,,Grouping Qualifier,A further categorization of the protocol deviation.,Perm
Events,DV,11,TAETORD,Planned Order of Element within Arm,Num,,,,Timing,Number that gives the planned order of the Element within the Arm.,Perm
Events,DV,12,EPOCH,Epoch,Char,C99079,,,Timing,"Epoch associated with the start date/time of the deviation. Examples: ""TREATMENT"", ""SCREENING"", ""FOLLOW-UP"".",Perm
Events,DV,13,DVSTDTC,Start Date/Time of Deviation,Char,,,ISO 8601,Timing,Start date/time of deviation represented in ISO 8601 character format.,Perm
Events,DV,14,DVENDTC,End Date/Time of Deviation,Char,,,ISO 8601,Timing,End date/time of deviation represented in ISO 8601 character format.,Perm
Events,DV,15,DVSTDY,Study Day of Start of Deviation Event,Num,,,,Timing,Study day of start of event relative to the sponsor-defined RFSTDTC.,Perm
Events,DV,16,DVENDY,Study Day of End of Observation,Num,,,,Timing,Study day of end of event relative to the sponsor-defined RFSTDTC.,Perm
Events,HO,1,STUDYID,Study Identifier,Char,,,,Identifier,Unique identifier for a study.,Req
Events,HO,2,DOMAIN,Domain Abbreviation,Char,,HO,,Identifier,Two-character abbreviation for the domain.,Req
Events,HO,3,USUBJID,Unique Subject Identifier,Char,,,,Identifier,Identifier used to uniquely identify a subject across all studies for all applications or submissions involving the product.,Req
Events,HO,4,HOSEQ,Sequence Number,Num,,,,Identifier,Sequence Number given to ensure uniqueness of subject records within a domain. May be any valid number.,Req
Events,HO,5,HOGRPID,Group ID,Char,,,,Identifier,Used to tie together a block of related records in a single domain for a subject.,Perm
Events,HO,6,HOREFID,Reference ID,Char,,,,Identifier,Internal or external healthcare encounter identifier.,Perm
Events,HO,7,HOSPID,Sponsor-Defined Identifier,Char,,,,Identifier,Sponsor-defined identifier. It may be preprinted on the CRF as an explicit line identifier or defined in the sponsor's operational database. Example: Line number on a Healthcare encounters page.,Perm
Events,HO,8,HOTERM,Healthcare Encounter Term,Char,,,,Topic,Verbatim or preprinted CRF term for the healthcare encounter.,Req
Events,HO,9,HODECOD,Dictionary-Derived Term,Char,,,,Synonym Qualifier,Dictionary or sponsor-defined derived text description of HOTERM or the modified topic variable (HOMODIFY).,Perm
Events,HO,10,HOCAT,Category for Healthcare Encounter,Char,,,,Grouping Qualifier,Used to define a category of topic-related values.,Perm
Events,HO,11,HOSCAT,Subcategory for Healthcare Encounter,Char,,,,Grouping Qualifier,A further categorization of HOCAT values.,Perm
Events,HO,12,HOPRESP,Pre-Specified Healthcare Encounter,Char,C66742,,,Variable Qualifier,"A value of ""Y"" indicates that this healthcare encounter event was pre-specified on the CRF. Values are null for spontaneously reported events (i.e., those collected as free-text verbatim terms).",Perm
Events,HO,13,HOOCCUR,Healthcare Encounter Occurrence,Char,C66742,,,Record Qualifier,"Used when the occurrence of specific healthcare encounters is solicited, to indicate whether or not an encounter occurred. Values are null for spontaneously reported events.",Perm
Events,HO,14,HOSTAT,Completion Status,Char,C66789,,,Record Qualifier,The status indicates that the pre-specified question was not answered.,Perm
Events,HO,15,HOREASND,Reason Healthcare Encounter Not Done,Char,,,,Record Qualifier,"Describes the reason data for a pre-specified event was not collected. Used in conjunction with HOSTAT when value is ""NOT DONE"".",Perm
Events,HO,16,TAETORD,Planned Order of Element within Arm,Num,,,,Timing,Number that gives the planned order of the Element within the Arm.,Perm
Events,HO,17,EPOCH,Epoch,Char,C99079,,,Timing,"Epoch associated with the start date/time of the healthcare encounter. Examples: ""SCREENING"", ""TREATMENT"", ""FOLLOW-UP"".",Perm
Events,HO,18,HODTC,Date/Time of Event Collection,Char,,,ISO 8601,Timing,Collection date and time of the healthcare encounter.,Perm
Events,HO,19,HOSTDTC,Start Date/Time of Healthcare Encounter,Char,,,ISO 8601,Timing,"Start date/time of the healthcare encounter (e.g., date of admission).",Exp
Events,HO,20,HOENDTC,End Date/Time of Healthcare Encounter,Char,,,ISO 8601,Timing,End date/time of the healthcare encounter (date of discharge).,Perm
Events,HO,21,HODY,Study Day of Event Collection,Num,,,,Timing,Study day of event collection relative to the sponsor-defined RFSTDTC.,Perm
Events,HO,22,HOSTDY,Study Day of Start of Encounter,Num,,,,Timing,Study day of the start of the healthcare encounter relative to the sponsor-defined RFSTDTC.,Perm
Events,HO,23,HOENDY,Study Day of End of Healthcare Encounter,Num,,,,Timing,Study day of the end of the healthcare encounter relative to the sponsor-defined RFSTDTC.,Perm
Events,HO,24,HODUR,Duration of Healthcare Encounter,Char,,,ISO 8601,Timing,"Collected duration of the healthcare encounter. Used only if collected on the CRF and not derived from the start and end date/times. Example: P1DT2H (for 1 day, 2 hours).",Perm
Events,HO,25,HOSTRTPT,Start Relative to Reference Time Point,Char,C66728,,,Timing,"Identifies the start of the observation as being before or after the sponsor-defined reference time point defined by variable --STTPT.
Not all values of the codelist are allowable for this variable. See Section 4.4.7, Use of Relative Timing Variables.",Perm
Events,HO,26,HOSTTPT,Start Reference Time Point,Char,,,,Timing,"Description or date/time in ISO 8601 character format of the sponsor-defined reference point referred to by STRTPT. Examples: ""2003-12-15"" or ""VISIT 1"".",Perm
Events,HO,27,HOENRTPT,End Relative to Reference Time Point,Char,C66728,,,Timing,"Identifies the end of the event as being before or after the reference time point defined by variable HOENTPT.
Not all values of the codelist are allowable for this variable. See Section 4.4.7, Use of Relative Timing Variables.",Perm
Events,HO,28,HOENTPT,End Reference Time Point,Char,,,,Timing,"Description or date/time in ISO 8601 character format of the reference point referred to by HOENRTPT. Examples: ""2003-12-25"" or ""VISIT 2"".",Perm
Events,MH,1,STUDYID,Study Identifier,Char,,,,Identifier,Unique identifier for a study.,Req
Events,MH,2,DOMAIN,Domain Abbreviation,Char,,MH,,Identifier,Two-character abbreviation for the domain.,Req
Events,MH,3,USUBJID,Unique Subject Identifier,Char,,,,Identifier,Identifier used to uniquely identify a subject across all studies for all applications or submissions involving the product.,Req
Events,MH,4,MHSEQ,Sequence Number,Num,,,,Identifier,Sequence Number given to ensure uniqueness of subject records within a domain. May be any valid number.,Req
Events,MH,5,MHGRPID,Group ID,Char,,,,Identifier,Used to tie together a block of related records in a single domain for a subject.,Perm
Events,MH,6,MHREFID,Reference ID,Char,,,,Identifier,Internal or external medical history identifier.,Perm
Events,MH,7,MHSPID,Sponsor-Defined Identifier,Char,,,,Identifier,Sponsor-defined reference number. Perhaps preprinted on the CRF as an explicit line identifier or defined in the sponsor's operational database. Example: Line number on a Medical History page.,Perm
Events,MH,8,MHTERM,Reported Term for the Medical History,Char,,,,Topic,Verbatim or preprinted CRF term for the medical condition or event.,Req
Events,MH,9,MHMODIFY,Modified Reported Term,Char,,,,Synonym Qualifier,"If MHTERM is modified to facilitate coding, then MHMODIFY will contain the modified text.",Perm
Events,MH,10,MHDECOD,Dictionary-Derived Term,Char,,,,Synonym Qualifier,Dictionary-derived text description of MHTERM or MHMODIFY. Equivalent to the Preferred Term (PT in MedDRA). The sponsor is expected to provide the dictionary name and version used to map the terms utilizing the external codelist element in the Define-XML document.,Perm
Events,MH,11,MHEVDTYP,Medical History Event Date Type,Char,C124301,,,Variable Qualifier,"Specifies the aspect of the medical condition or event by which MHSTDTC and/or the MHENDTC is defined. Examples: ""DIAGNOSIS"", ""SYMPTOMS"", ""RELAPSE"", ""INFECTION"".",Perm
Events,MH,12,MHCAT,Category for Medical History,Char,,,,Grouping Qualifier,"Used to define a category of related records. Examples: ""CARDIAC"" or ""GENERAL"".",Perm
Events,MH,13,MHSCAT,Subcategory for Medical History,Char,,,,Grouping Qualifier,A further categorization of the condition or event.,Perm
Events,MH,14,MHPRESP,Medical History Event Pre-Specified,Char,C66742,,,Variable Qualifier,"A value of ""Y"" indicates that this medical history event was pre-specified on the CRF. Values are null for spontaneously reported events (i.e., those collected as free-text verbatim terms).",Perm
Events,MH,15,MHOCCUR,Medical History Occurrence,Char,C66742,,,Record Qualifier,"Used when the occurrence of specific medical history conditions is solicited, to indicate whether or not (""Y""/""N"") a medical condition (MHTERM) had ever occurred. Values are null for spontaneously reported events.",Perm
Events,MH,16,MHSTAT,Completion Status,Char,C66789,,,Record Qualifier,The status indicates that the pre-specified question was not asked/answered.,Perm
Events,MH,17,MHREASND,Reason Medical History Not Collected,Char,,,,Record Qualifier,"Describes the reason why data for a pre-specified condition was not collected. Used in conjunction with MHSTAT when value is ""NOT DONE"".",Perm
Events,MH,18,MHBODSYS,Body System or Organ Class,Char,,,,Record Qualifier,"Dictionary-derived. Body system or organ class that is involved in an event or measurement from a standard hierarchy (e.g., MedDRA). When using a multi-axial dictionary such as MedDRA, this should contain the SOC used for the sponsor's analyses and summary tables which may not necessarily be the primary SOC.",Perm
Events,MH,19,TAETORD,Planned Order of Element within Arm,Num,,,,Timing,Number that gives the planned order of the Element within the Arm for the Element in which the assessment was made.,Perm
Events,MH,20,EPOCH,Epoch,Char,C99079,,,Timing,Epoch associated with the start date/time of the medical history event.,Perm
Events,MH,21,MHDTC,Date/Time of History Collection,Char,,,ISO 8601,Timing,Collection date and time of the medical history observation represented in ISO 8601 character format.,Perm
Events,MH,22,MHSTDTC,Start Date/Time of Medical History Event,Char,,,ISO 8601,Timing,Start date/time of the medical history event represented in ISO 8601 character format.,Perm
Events,MH,23,MHENDTC,End Date/Time of Medical History Event,Char,,,ISO 8601,Timing,End date/time of the medical history event.,Perm
Events,MH,24,MHDY,Study Day of History Collection,Num,,,,Timing,"1. Study day of medical history collection, measured as integer days.
2. Algorithm for calculations must be relative to the sponsor-defined RFSTDTC variable in Demographics. This formula should be consistent across the submission.",Perm
Events,MH,25,MHENRF,End Relative to Reference Period,Char,C66728,,,Timing,"Describes the end of the event relative to the sponsor-defined reference period. The sponsor-defined reference period is a continuous period of time defined by a discrete starting point and a discrete ending point (represented by RFSTDTC and RFENDTC in Demographics).
Not all values of the codelist are allowable for this variable. See Section 4.4.7, Use of Relative Timing Variables.",Perm
Events,MH,26,MHENRTPT,End Relative to Reference Time Point,Char,C66728,,,Timing,"Identifies the end of the event as being before or after the reference time point defined by variable MHENTPT.
Not all values of the codelist are allowable for this variable. See Section 4.4.7, Use of Relative Timing Variables.",Perm
Events,MH,27,MHENTPT,End Reference Time Point,Char,,,,Timing,"Description or date/time in ISO 8601 character format of the reference point referred to by MHENRTPT. Examples: ""2003-12-25"" or ""VISIT 2"".",Perm
Findings,DA,1,STUDYID,Study Identifier,Char,,,,Identifier,Unique identifier for a study within the submission.,Req
Findings,DA,2,DOMAIN,Domain Abbreviation,Char,,DA,,Identifier,Two-character abbreviation for the domain.,Req
Findings,DA,3,USUBJID,Unique Subject Identifier,Char,,,,Identifier,Unique subject identifier within the submission.,Req
Findings,DA,4,DASEQ,Sequence Number,Num,,,,Identifier,Sequence number given to ensure uniqueness of subject records within a domain. May be any valid number.,Req
Findings,DA,5,DAGRPID,Group ID,Char,,,,Identifier,Used to tie together a block of related records in a single domain for a subject.,Perm
Findings,DA,6,DAREFID,Reference ID,Char,,,,Identifier,Internal or external identifier such as label number.,Perm
Findings,DA,7,DASPID,Sponsor-Defined Identifier,Char,,,,Identifier,"Sponsor-defined reference number. Perhaps preprinted on the CRF as an explicit line identifier or defined in the sponsor's operational database. Examples: Line number on the Drug Accountability page, drug label code.",Perm
Findings,DA,8,DATESTCD,Short Name of Accountability Assessment,Char,C78732,,,Topic,"Short character value for DATEST used as a column name when converting a dataset from a vertical format to a horizontal format. The short value can be up to 8 characters and cannot begin with a number or contain characters other than letters, numbers, or underscores. Example: ""DISPAMT"", ""RETAMT"".",Req
Findings,DA,9,DATEST,Name of Accountability Assessment,Char,C78731,,,Synonym Qualifier,"Verbatim name, corresponding to the topic variable, of the test or examination used to obtain the drug accountability assessment. The value in DATEST cannot be longer than 40 characters. Example: ""Dispensed Amount"", ""Returned Amount"".",Req
Findings,DA,10,DACAT,Category,Char,,,,Grouping Qualifier,"Used to define a category of topic-variable values. Examples: ""STUDY MEDICATION"", ""RESCUE MEDICATION"".",Perm
Findings,DA,11,DASCAT,Subcategory,Char,,,,Grouping Qualifier,Used to define a further categorization level for a group of related records.,Perm
Findings,DA,12,DAORRES,Result or Finding in Original Units,Char,,,,Result Qualifier,Result of the Drug Accountability assessment as originally received or collected.,Exp
Findings,DA,13,DAORRESU,Original Units,Char,C71620,,,Variable Qualifier,Unit for DAORRES.,Perm
Findings,DA,14,DASTRESC,Result or Finding in Standard Format,Char,,,,Result Qualifier,"Contains the result value for all Drug Accountability assessments, copied or derived from DAORRES in a standard format or in standard units. DASTRESC should store all results or findings in character format; if results are numeric, they should also be stored in numeric format in DASTRESN.",Exp
Findings,DA,15,DASTRESN,Numeric Result/Finding in Standard Units,Num,,,,Result Qualifier,Used for continuous or numeric results or findings in standard format; copied in numeric format from DASTRESC. DASTRESN should store all numeric test results or findings.,Perm
Findings,DA,16,DASTRESU,Standard Units,Char,C71620,,,Variable Qualifier,Standardized units used for DASTRESC and DASTRESN.,Perm
Findings,DA,17,DASTAT,Completion Status,Char,C66789,,,Record Qualifier,"Used to indicate that a drug accountability assessment was not done. Should be null or have a value of ""NOT DONE"".",Perm
Findings,DA,18,DAREASND,Reason Not Done,Char,,,,Record Qualifier,"Reason not done. Used in conjunction with DASTAT when value is ""NOT DONE"".",Perm
Findings,DA,19,VISITNUM,Visit Number,Num,,,,Timing,"1. Clinical encounter number.
2. Numeric version of VISIT, used for sorting.",Exp
Findings,DA,20,VISIT,Visit Name,Char,,,,Timing,"1. Protocol-defined description of a clinical encounter.
2. May be used in addition to VISITNUM and/or VISITDY.",Perm
Findings,DA,21,VISITDY,Planned Study Day of Visit,Num,,,,Timing,"Planned study day of the visit, based upon RFSTDTC in Demographics.",Perm
Findings,DA,22,TAETORD,Planned Order of Element within Arm,Num,,,,Timing,Number that gives the planned order of the Element within the Arm.,Perm
Findings,DA,23,EPOCH,Epoch,Char,C99079,,,Timing,"Epoch associated with the start date/time of the observation, or the date/time of collection if start date/time is not collected.",Perm
Findings,DA,24,DADTC,Date/Time of Collection,Char,,,ISO 8601,Timing,Date and time of the drug accountability assessment represented in ISO 8601 character format.,Exp
Findings,DA,25,DADY,Study Day of Visit/Collection/Exam,Num,,,,Timing,"1. Study day of drug accountability assessment, measured in integer days.
2. Algorithm for calculations must be relative to the sponsor-defined RFSTDTC in Demographics.",Perm
Findings,DD,1,STUDYID,Study Identifier,Char,,,,Identifier,Unique identifier for a study.,Req
Findings,DD,2,DOMAIN,Domain Abbreviation,Char,,DD,,Identifier,Two-character abbreviation for the domain.,Req
Findings,DD,3,USUBJID,Unique Subject Identifier,Char,,,,Identifier,Identifier used to uniquely identify a subject across all studies for all applications or submissions involving the product.,Req
Findings,DD,4,DDSEQ,Sequence Number,Num,,,,Identifier,Sequence number given to ensure uniqueness of subject records within a domain. May be any valid number.,Req
Findings,DD,5,DDTESTCD,Death Detail Assessment Short Name,Char,C116108,,,Topic,"Short name of the measurement, test, or examination described in DDTEST. It can be used as a column name when converting a dataset from a vertical to a horizontal format. The value in DDTESTCD cannot be longer than 8 characters, nor can it start with a number (e.g., ""1TEST"" is not valid). DDTESTCD cannot contain characters other than letters, numbers, or underscores. Examples: ""PRCDTH"", ""SECDTH"".",Req
Findings,DD,6,DDTEST,Death Detail Assessment Name,Char,C116107,,,Synonym Qualifier,"Long name for DDTESTCD. The value in DDTEST cannot be longer than 40 characters. Examples: ""Primary Cause of Death"", ""Secondary Cause of Death"".",Req
Findings,DD,7,DDORRES,Result or Finding as Collected,Char,,,,Result Qualifier,"Result of the test defined in DDTEST, as originally received or collected.",Exp
Findings,DD,8,DDSTRESC,Character Result/Finding in Std Format,Char,,,,Result Qualifier,Contains the result or finding copied or derived from DDORRES in a standard format.,Exp
Findings,DD,9,DDRESCAT,Result Category,Char,,,,Variable Qualifier,"Used to categorize the result of a finding. Examples: ""TREATMENT RELATED"", ""NONTREATMENT RELATED"", ""UNDETERMINED"", ""ACCIDENTAL"".",Perm
Findings,DD,10,DDEVAL,Evaluator,Char,C78735,,,Record Qualifier,Role of the person who provided the evaluation.,Perm
Findings,DD,11,DDDTC,Date/Time of Collection,Char,,,ISO 8601,Timing,Date/time of collection of the diagnosis or other death assessment data in ISO 8601 format. This is not necessarily the date of death.,Exp
Findings,DD,12,DDDY,Study Day of Collection,Num,,,,Timing,"Study day of the collection, in integer days. The algorithm for calculations must be relative to the sponsor-defined RFSTDTC variable in the Demographics (DM) domain.",Perm
Findings,EG,1,STUDYID,Study Identifier,Char,,,,Identifier,Unique identifier for a study.,Req
Findings,EG,2,DOMAIN,Domain Abbreviation,Char,,EG,,Identifier,Two-character abbreviation for the domain.,Req
Findings,EG,3,USUBJID,Unique Subject Identifier,Char,,,,Identifier,Identifier used to uniquely identify a subject across all studies for all applications or submissions involving the product.,Req
Findings,EG,4,SPDEVID,Sponsor Device Identifier,Char,,,,Identifier,Sponsor-defined identifier for a device.,Perm
Findings,EG,5,EGSEQ,Sequence Number,Num,,,,Identifier,Sequence number given to ensure uniqueness of subject records within a domain. May be any valid number.,Req
Findings,EG,6,EGGRPID,Group ID,Char,,,,Identifier,Used to tie together a block of related records in a single domain for a subject.,Perm
Findings,EG,7,EGREFID,ECG Reference ID,Char,,,,Identifier,"Internal or external ECG identifier. Example: ""UUID"".",Perm
Findings,EG,8,EGSPID,Sponsor-Defined Identifier,Char,,,,Identifier,Sponsor-defined reference number. Perhaps preprinted on the CRF as an explicit line identifier or defined in the sponsor's operational database. Example: Line number from the ECG page.,Perm
Findings,EG,9,EGTESTCD,ECG Test or Examination Short Name,Char,C71153,,,Topic,"Short name of the measurement, test, or examination described in EGTEST. It can be used as a column name when converting a dataset from a vertical to a horizontal format. The value in EGTESTCD cannot be longer than 8 characters, nor can it start with a number (e.g., ""1TEST"" is not valid). EGTESTCD cannot contain characters other than letters, numbers, or underscores. Examples : ""PRAG"", ""QRSAG"".
Test codes are in two separate codelists, one for tests based on regular 10-second ECGs (EGTESTCD) and one for tests based on Holter monitoring (HETESTCD).",Req
Findings,EG,10,EGTEST,ECG Test or Examination Name,Char,C71152,,,Synonym Qualifier,"Verbatim name of the test or examination used to obtain the measurement or finding. The value in EGTEST cannot be longer than 40 characters. Examples: ""PR Interval, Aggregate"", ""QRS Duration, Aggregate"".
Test names are in two separate codelists, one for tests based on regular 10-second ECGs (EGTEST) and one for tests based on Holter monitoring (HETEST).",Req
Findings,EG,11,EGCAT,Category for ECG,Char,,,,Grouping Qualifier,"Used to categorize ECG observations across subjects. Examples: ""MEASUREMENT"", ""FINDING"", ""INTERVAL"".",Perm
Findings,EG,12,EGSCAT,Subcategory for ECG,Char,,,,Grouping Qualifier,A further categorization of the ECG.,Perm
Findings,EG,13,EGPOS,ECG Position of Subject,Char,C71148,,,Record Qualifier,"Position of the subject during a measurement or examination. Examples: ""SUPINE"", ""STANDING"", ""SITTING"".",Perm
Findings,EG,14,EGBEATNO,ECG Beat Number,Num,,,,Variable Qualifier,A sequence number that identifies the beat within an ECG.,Perm
Findings,EG,15,EGORRES,Result or Finding in Original Units,Char,,,,Result Qualifier,"Result of the ECG measurement or finding as originally received or collected. Examples of expected values are ""62"" or ""0.151"" when the result is an interval or measurement, or ""ATRIAL FIBRILLATION"" or ""QT PROLONGATION"" when the result is a finding.",Exp
Findings,EG,16,EGORRESU,Original Units,Char,C71620,,,Variable Qualifier,"Original units in which the data were collected. The unit for EGORRES. Examples: ""sec"" or ""msec"".",Perm
Findings,EG,17,EGSTRESC,Character Result/Finding in Std Format,Char,C120522,,,Result Qualifier,"Contains the result value for all findings, copied or derived from EGORRES in a standard format or standard units. EGSTRESC should store all results or findings in character format; if results are numeric, they should also be stored in numeric format in EGSTRESN. For example, if a test has results of ""NONE"", ""NEG"", and ""NEGATIVE"" in EGORRES and these results effectively have the same meaning, they could be represented in standard format in EGSTRESC as ""NEGATIVE"". For other examples, see general assumptions. Additional examples of result data: ""SINUS BRADYCARDIA"", ""ATRIAL FLUTTER"", ""ATRIAL FIBRILLATION"".
Test results are in two separate codelists, one for tests based on regular 10-second ECGs (EGSTRESC) and one for tests based on Holter monitoring (HESTRESC).",Exp
Findings,EG,18,EGSTRESN,Numeric Result/Finding in Standard Units,Num,,,,Result Qualifier,Used for continuous or numeric results or findings in standard format; copied in numeric format from EGSTRESC. EGSTRESN should store all numeric test results or findings.,Perm
Findings,EG,19,EGSTRESU,Standard Units,Char,C71620,,,Variable Qualifier,Standardized units used for EGSTRESC and EGSTRESN.,Perm
Findings,EG,20,EGSTAT,Completion Status,Char,C66789,,,Record Qualifier,"Used to indicate an ECG was not done, or an ECG measurement was not taken. Should be null if a result exists in EGORRES.",Perm
Findings,EG,21,EGREASND,Reason ECG Not Done,Char,,,,Record Qualifier,"Describes why a measurement or test was not performed. Examples: ""BROKEN EQUIPMENT"" or ""SUBJECT REFUSED"". Used in conjunction with EGSTAT when value is ""NOT DONE"".",Perm
Findings,EG,22,EGXFN,ECG External File Path,Char,,,,Record Qualifier,File name and path for the external ECG waveform file.,Perm
Findings,EG,23,EGNAM,Vendor Name,Char,,,,Record Qualifier,Name or identifier of the laboratory or vendor who provided the test results.,Perm
Findings,EG,24,EGMETHOD,Method of Test or Examination,Char,C71151,,,Record Qualifier,"Method of the ECG test. Example: ""12 LEAD STANDARD"".",Perm
Findings,EG,25,EGLEAD,Lead Location Used for Measurement,Char,C90013,,,Record Qualifier,"The lead used for the measurement. Examples: ""LEAD 1"", ""LEAD 2"", ""LEAD 3"", ""LEAD rV2"", ""LEAD V1"".",Perm
Findings,EG,26,EGLOBXFL,Last Observation Before Exposure Flag,Char,C66742,,,Record Qualifier,"Operationally-derived indicator used to identify the last non-missing value prior to RFXSTDTC. The value should be ""Y"" or null.",Exp
Findings,EG,27,EGBLFL,Baseline Flag,Char,C66742,,,Record Qualifier,"Indicator used to identify a baseline value. Should be ""Y"" or null. Note that EGBLFL is retained for backward compatibility. The authoritative baseline for statistical analysis is in an ADaM dataset.",Perm
Findings,EG,28,EGDRVFL,Derived Flag,Char,C66742,,,Record Qualifier,"Used to indicate a derived record. The value should be ""Y"" or null. Records that represent the average of other records, or that do not come from the CRF, or are not as originally collected or received are examples of records that would be derived for the submission datasets. If EGDRVFL = ""Y"", then EGORRES could be null, with EGSTRESC and EGSTRESN (if the result is numeric) having the derived value.",Perm
Findings,EG,29,EGEVAL,Evaluator,Char,C78735,,,Record Qualifier,"Role of the person who provided the evaluation. Used only for results that are subjective (e.g., assigned by a person or a group). Should be null for records that contain collected or derived data. Examples: ""INVESTIGATOR"", ""ADJUDICATION COMMITTEE"", ""VENDOR"".",Perm
Findings,EG,30,EGEVALID,Evaluator Identifier,Char,C96777,,,Variable Qualifier,"Used to distinguish multiple evaluators with the same role recorded in EGEVAL. Examples: ""RADIOLOGIST 1"" or ""RADIOLOGIST 2"".",Perm
Findings,EG,31,EGREPNUM,Repetition Number,Num,,,,Record Qualifier,"The incidence number of a test that is repeated within a given timeframe for the same test. The level of granularity can vary, e.g., within a time point or within a visit. For example, multiple measurements of blood pressure or multiple analyses of a sample.",Perm
Findings,EG,32,VISITNUM,Visit Number,Num,,,,Timing,"1. Clinical encounter number.
2. Numeric version of VISIT, used for sorting.",Exp
Findings,EG,33,VISIT,Visit Name,Char,,,,Timing,"1. Protocol-defined description of clinical encounter.
2. May be used in addition to VISITNUM and/or VISITDY.",Perm
Findings,EG,34,VISITDY,Planned Study Day of Visit,Num,,,,Timing,Planned study day of the visit based upon RFSTDTC in Demographics.,Perm
Findings,EG,35,TAETORD,Planned Order of Element within Arm,Num,,,,Timing,Number that gives the planned order of the Element within the Arm for the element in which the assessment was made.,Perm
Findings,EG,36,EPOCH,Epoch,Char,C99079,,,Timing,Epoch associated with the date/time at which the assessment was made.,Perm
Findings,EG,37,EGDTC,Date/Time of ECG,Char,,,ISO 8601,Timing,Date/Time of ECG.,Exp
Findings,EG,38,EGDY,Study Day of ECG,Num,,,,Timing,"1. Study day of the ECG, measured as integer days.
2. Algorithm for calculations must be relative to the sponsor-defined RFSTDTC variable in Demographics.",Perm
Findings,EG,39,EGTPT,Planned Time Point Name,Char,,,,Timing,"1. Text description of time when measurement should be taken.
2. This may be represented as an elapsed time relative to a fixed reference point, such as time of last dose. See EGTPTNUM and EGTPTREF. Examples: ""Start"", ""5 min post"".",Perm
Findings,EG,40,EGTPTNUM,Planned Time Point Number,Num,,,,Timing,Numerical version of EGTPT to aid in sorting.,Perm
Findings,EG,41,EGELTM,Planned Elapsed Time from Time Point Ref,Char,,,ISO 8601,Timing,"Planned elapsed time (in ISO 8601) relative to a fixed time point reference (EGTPTREF). Not a clock time or a date time variable. Represented as an ISO 8601 duration. Examples: ""-PT15M"" to represent the period of 15 minutes prior to the reference point indicated by EGTPTREF, or ""PT8H"" to represent the period of 8 hours after the reference point indicated by EGTPTREF.",Perm
Findings,EG,42,EGTPTREF,Time Point Reference,Char,,,,Timing,"Name of the fixed reference point referred to by EGELTM, EGTPTNUM, and EGTPT. Examples: ""PREVIOUS DOSE"", ""PREVIOUS MEAL"".",Perm
Findings,EG,43,EGRFTDTC,Date/Time of Reference Time Point,Char,,,ISO 8601,Timing,Date/time for a fixed reference time point defined by EGTPTREF.,Perm
Findings,IE,1,STUDYID,Study Identifier,Char,,,,Identifier,Unique identifier for a study.,Req
Findings,IE,2,DOMAIN,Domain Abbreviation,Char,,IE,,Identifier,Two-character abbreviation for the domain.,Req
Findings,IE,3,USUBJID,Unique Subject Identifier,Char,,,,Identifier,Identifier used to uniquely identify a subject across all studies for all applications or submissions involving the product.,Req
Findings,IE,4,IESEQ,Sequence Number,Num,,,,Identifier,Sequence number given to ensure uniqueness of subject records within a domain. May be any valid number.,Req
Findings,IE,5,IESPID,Sponsor-Defined Identifier,Char,,,,Identifier,Sponsor-defined reference number. Perhaps preprinted on the CRF as an explicit line identifier or defined in the sponsor's operational database. Example: Inclusion or Exclusion criteria number from CRF.,Perm
Findings,IE,6,IETESTCD,Inclusion/Exclusion Criterion Short Name,Char,,,,Topic,"Short name of the criterion described in IETEST. The value in IETESTCD cannot be longer than 8 characters, nor can it start with a number (e.g., ""1TEST"" is not valid). IETESTCD cannot contain characters other than letters, numbers, or underscores. Examples: ""IN01"", ""EX01"".",Req
Findings,IE,7,IETEST,Inclusion/Exclusion Criterion,Char,,,,Synonym Qualifier,Verbatim description of the inclusion or exclusion criterion that was the exception for the subject within the study. IETEST cannot be longer than 200 characters.,Req
Findings,IE,8,IECAT,Inclusion/Exclusion Category,Char,C66797,,,Grouping Qualifier,Used to define a category of related records across subjects.,Req
Findings,IE,9,IESCAT,Inclusion/Exclusion Subcategory,Char,,,,Grouping Qualifier,"A further categorization of the exception criterion. Can be used to distinguish criteria for a sub-study or for to categorize as a major or minor exceptions. Examples: ""MAJOR"", ""MINOR"".",Perm
Findings,IE,10,IEORRES,I/E Criterion Original Result,Char,C66742,,,Result Qualifier,"Original response to Inclusion/Exclusion Criterion question, i.e., whether the inclusion or exclusion criterion was met.",Req
Findings,IE,11,IESTRESC,I/E Criterion Result in Std Format,Char,C66742,,,Result Qualifier,Response to Inclusion/Exclusion criterion result in standard format.,Req
Findings,IE,12,VISITNUM,Visit Number,Num,,,,Timing,"1. Clinical encounter number.
2. Numeric version of VISIT, used for sorting.",Perm
Findings,IE,13,VISIT,Visit Name,Char,,,,Timing,"1. Protocol-defined description of clinical encounter.
2. May be used in addition to VISITNUM and/or VISITDY.",Perm
Findings,IE,14,VISITDY,Planned Study Day of Visit,Num,,,,Timing,Planned study day of the visit based upon RFSTDTC in Demographics.,Perm
Findings,IE,15,TAETORD,Planned Order of Element within Arm,Num,,,,Timing,Number that gives the planned order of the Element within the Arm for the Element in which the assessment was made.,Perm
Findings,IE,16,EPOCH,Epoch,Char,C99079,,,Timing,Epoch associated with the observation date/time of the inclusion/exclusion finding.,Perm
Findings,IE,17,IEDTC,Date/Time of Collection,Char,,,ISO 8601,Timing,Collection date and time of the inclusion/exclusion criterion represented in ISO 8601 character format.,Perm
Findings,IE,18,IEDY,Study Day of Collection,Num,,,,Timing,"1. Study day of collection of the inclusion/exclusion exceptions, measured as integer days.
2. Algorithm for calculations must be relative to the sponsor-defined RFSTDTC variable in Demographics. This formula should be consistent across the submission.",Perm
Findings,IS,1,STUDYID,Study Identifier,Char,,,,Identifier,Unique identifier for a study.,Req
Findings,IS,2,DOMAIN,Domain Abbreviation,Char,,IS,,Identifier,Two-character abbreviation for the domain.,Req
Findings,IS,3,USUBJID,Unique Subject Identifier,Char,,,,Identifier,Identifier used to uniquely identify a subject across all studies for all applications or submissions involving the product.,Req
Findings,IS,4,ISSEQ,Sequence Number,Num,,,,Identifier,Sequence number given to ensure uniqueness of subject records within a domain. May be any valid number.,Req
Findings,IS,5,ISGRPID,Group ID,Char,,,,Identifier,Used to tie together a block of related records in a single domain for a subject.,Perm
Findings,IS,6,ISREFID,Reference ID,Char,,,,Identifier,"Internal or external specimen identifier. Example: ""458975-01"".",Perm
Findings,IS,7,ISSPID,Sponsor-Defined Identifier,Char,,,,Identifier,Sponsor-defined identifier.,Perm
Findings,IS,8,ISTESTCD,Immunogenicity Test/Exam Short Name,Char,C120525,,,Topic,"Short name of the measurement, test, or examination described in ISTEST. It can be used as a column name when converting a dataset from a vertical to a horizontal format. The value in ISTESTCD cannot be longer than 8 characters, nor can it start with a number (e.g., ""1TEST"" is not valid). ISTESTCD cannot contain characters other than letters, numbers, or underscores.",Req
Findings,IS,9,ISTEST,Immunogenicity Test or Examination Name,Char,C120526,,,Synonym Qualifier,"Verbatim name of the test or examination used to obtain the measurement or finding. The value in ISTEST cannot be longer than 40 characters. Example: ""Immunoglobulin E"".",Req
Findings,IS,10,ISCAT,Category for Immunogenicity Test,Char,,,,Synonym Qualifier,"Used to define a category of Topic-variable values across subjects. Example: ""SEROLOGY"".",Perm
Findings,IS,11,ISSCAT,Subcategory for Immunogenicity Test,Char,,,,Grouping Qualifier,A further categorization of ISCAT.,Perm
Findings,IS,12,ISORRES,Results or Findings in Original Units,Char,,,,Result Qualifier,Result of measurement or finding as originally received or collected.,Exp
Findings,IS,13,ISORRESU,Original Units,Char,C71620,,,Variable Qualifier,"Original units in which the data were collected. The unit for ISORRES. Examples: ""Index Value"", ""gpELISA"", ""unit/mL"".",Exp
Findings,IS,14,ISSTRESC,Character Result/Finding in Std Format,Char,,,,Result Qualifier,"Contains the result value for all findings, copied or derived from ISORRES, in a standard format or in standard units. ISSTRESC should store all results or findings in character format; if results are numeric, they should also be stored in numeric format in ISSTRESN.",Exp
Findings,IS,15,ISSTRESN,Numeric Results/Findings in Std. Units,Num,,,,Result Qualifier,Used for continuous or numeric results or findings in standard format; copied in numeric format from ISSTRESC. ISSTRESN should store all numeric test results or findings.,Exp
Findings,IS,16,ISSTRESU,Standard Units,Char,C71620,,,Variable Qualifier,"Standardized units used for ISSTRESC and ISSTRESN. Examples: ""Index Value"", ""gpELISA"", ""unit/mL"".",Exp
Findings,IS,17,ISSTAT,Completion Status,Char,C66789,,,Record Qualifier,Used to indicate a test was not done. Should be null if a result exists in ISORRES.,Perm
Findings,IS,18,ISREASND,Reason Not Done,Char,,,,Record Qualifier,"Describes why a measurement or test was not performed. Used in conjunction with ISSTAT when value is ""NOT DONE"".",Perm
Findings,IS,19,ISNAM,Vendor Name,Char,,,,Record Qualifier,Name or identifier of the laboratory or vendor who provided the test results.,Perm
Findings,IS,20,ISSPEC,Specimen Type,Char,C78734,,,Record Qualifier,"Defines the types of specimen used for a measurement. Example: ""SERUM"".",Perm
Findings,IS,21,ISMETHOD,Method of Test or Examination,Char,C85492,,,Record Qualifier,"Method of the test or examination. Examples: ""ELISA"", ""ELISPOT"".",Perm
Findings,IS,22,ISLOBXFL,Last Observation Before Exposure Flag,Char,C66742,,,Record Qualifier,"Operationally-derived indicator used to identify the last non-missing value prior to RFXSTDTC. The value should be ""Y"" or null.",Perm
Findings,IS,23,ISBLFL,Baseline Flag,Char,C66742,,,Record Qualifier,"Indicator used to identify a baseline value. Should be ""Y"" or null. Note that ISBLFL is retained for backward compatibility. The authoritative baseline for statistical analysis is in an ADaM dataset.",Perm
Findings,IS,24,ISLLOQ,Lower Limit of Quantitation,Num,,,,Variable Qualifier,Indicates the lower limit of quantitation for an assay. Units will be those used for ISSTRESU.,Exp
Findings,IS,25,VISITNUM,Visit Number,Num,,,,Timing,"1. Clinical encounter number.
2. Numeric version of VISIT, used for sorting.",Exp
Findings,IS,26,VISIT,Visit Name,Char,,,,Timing,"1. Protocol-defined description of a clinical encounter.
2. May be used in addition to VISITNUM and/or VISITDY.",Perm
Findings,IS,27,VISITDY,Planned Study Day of Visit,Num,,,,Timing,Planned study day of the visit based upon RFSTDTC in Demographics.,Perm
Findings,IS,28,TAETORD,Planned Order of Element within Arm,Num,,,,Timing,Number that gives the planned order of the Element within the Arm.,Perm
Findings,IS,29,EPOCH,Epoch,Char,C99079,,,Timing,"Epoch associated with the start date/time of the observation, or the date/time of collection if start date/time is not collected.",Perm
Findings,IS,30,ISDTC,Date/Time of Collection,Char,,,ISO 8601,Timing,Collection date and time of an observation represented in ISO 8601.,Exp
Findings,IS,31,ISDY,Study Day of Visit/Collection/Exam,Num,,,,Timing,Actual study day of visit/collection/exam expressed in integer days relative to sponsor-defined RFSTDTC in Demographics.,Perm
Findings,LB,1,STUDYID,Study Identifier,Char,,,,Identifier,Unique identifier for a study.,Req
Findings,LB,2,DOMAIN,Domain Abbreviation,Char,,LB,,Identifier,Two-character abbreviation for the domain.,Req
Findings,LB,3,USUBJID,Unique Subject Identifier,Char,,,,Identifier,Identifier used to uniquely identify a subject across all studies for all applications or submissions involving the product.,Req
Findings,LB,4,LBSEQ,Sequence Number,Num,,,,Identifier,Sequence number given to ensure uniqueness of subject records within a domain. May be any valid number.,Req
Findings,LB,5,LBGRPID,Group ID,Char,,,,Identifier,Used to tie together a block of related records in a single domain for a subject.,Perm
Findings,LB,6,LBREFID,Specimen ID,Char,,,,Identifier,Internal or external specimen identifier. Example: Specimen ID.,Perm
Findings,LB,7,LBSPID,Sponsor-Defined Identifier,Char,,,,Identifier,Sponsor-defined reference number. Perhaps preprinted on the CRF as an explicit line identifier or defined in the sponsor's operational database. Example: Line number on the Lab page.,Perm
Findings,LB,8,LBTESTCD,Lab Test or Examination Short Name.,Char,C65047,,,Topic,"Short name of the measurement, test, or examination described in LBTEST. It can be used as a column name when converting a dataset from a vertical to a horizontal format. The value in LBTESTCD cannot be longer than 8 characters, nor can it start with a number (e.g., ""1TEST"" is not valid). LBTESTCD cannot contain characters other than letters, numbers, or underscores. Examples: ""ALT"", ""LDH"".",Req
Findings,LB,9,LBTEST,Lab Test or Examination Name,Char,C67154,,,Synonym Qualifier,"Verbatim name of the test or examination used to obtain the measurement or finding. Note any test normally performed by a clinical laboratory is considered a lab test. The value in LBTEST cannot be longer than 40 characters. Examples: ""Alanine Aminotransferase"", ""Lactate Dehydrogenase"".",Req
Findings,LB,10,LBCAT,Category for Lab Test,Char,,,,Grouping Qualifier,"Used to define a category of related records across subjects. Examples: ""HEMATOLOGY"", ""URINALYSIS"", ""CHEMISTRY"".",Exp
Findings,LB,11,LBSCAT,Subcategory for Lab Test,Char,,,,Grouping Qualifier,"A further categorization of a test category such as ""DIFFERENTIAL"", ""COAGULATION"", ""LIVER FUNCTION"", ""ELECTROLYTES"".",Perm
Findings,LB,12,LBORRES,Result or Finding in Original Units,Char,,,,Result Qualifier,Result of the measurement or finding as originally received or collected.,Exp
Findings,LB,13,LBORRESU,Original Units,Char,C71620,,,Variable Qualifier,"Original units in which the data were collected. The unit for LBORRES. Example: ""g/L"".",Exp
Findings,LB,14,LBORNRLO,Reference Range Lower Limit in Orig Unit,Char,,,,Variable Qualifier,Lower end of reference range for continuous measurement in original units. Should be populated only for continuous results.,Exp
Findings,LB,15,LBORNRHI,Reference Range Upper Limit in Orig Unit,Char,,,,Variable Qualifier,Upper end of reference range for continuous measurement in original units. Should be populated only for continuous results.,Exp
Findings,LB,16,LBSTRESC,Character Result/Finding in Std Format,Char,C102580,,,Result Qualifier,"Contains the result value for all findings, copied or derived from LBORRES in a standard format or standard units. LBSTRESC should store all results or findings in character format; if results are numeric, they should also be stored in numeric format in LBSTRESN. For example, if a test has results ""NONE"", ""NEG"", and ""NEGATIVE"" in LBORRES and these results effectively have the same meaning, they could be represented in standard format in LBSTRESC as ""NEGATIVE"". For other examples, see general assumptions.",Exp
Findings,LB,17,LBSTRESN,Numeric Result/Finding in Standard Units,Num,,,,Result Qualifier,Used for continuous or numeric results or findings in standard format; copied in numeric format from LBSTRESC. LBSTRESN should store all numeric test results or findings.,Exp
Findings,LB,18,LBSTRESU,Standard Units,Char,C71620,,,Variable Qualifier,Standardized unit used for LBSTRESC or LBSTRESN.,Exp
Findings,LB,19,LBSTNRLO,Reference Range Lower Limit-Std Units,Num,,,,Variable Qualifier,Lower end of reference range for continuous measurements for LBSTRESC/LBSTRESN in standardized units. Should be populated only for continuous results.,Exp
Findings,LB,20,LBSTNRHI,Reference Range Upper Limit-Std Units,Num,,,,Variable Qualifier,Upper end of reference range for continuous measurements in standardized units. Should be populated only for continuous results.,Exp
Findings,LB,21,LBSTNRC,Reference Range for Char Rslt-Std Units,Char,,,,Variable Qualifier,"For normal range values that are character in ordinal scale or if categorical ranges were supplied (e.g., ""-1 to +1"", ""NEGATIVE TO TRACE"").",Perm
Findings,LB,22,LBSTREFC,Reference Result in Standard Format,Char,,,,Variable Qualifier,Reference value for the result or finding copied or derived from LBORREF in a standard format.,Exp
Findings,LB,23,LBNRIND,Reference Range Indicator,Char,C78736,,,Variable Qualifier,"1. Indicates where the value falls with respect to reference range defined by LBORNRLO and LBORNRHI, LBSTNRLO and LBSTNRHI, or by LBSTNRC. Examples: ""NORMAL"", ""ABNORMAL"", ""HIGH"", ""LOW"".
2. Sponsors should specify in the study metadata (Comments column in the Define-XML document) whether LBNRIND refers to the original or standard reference ranges and results.
3. Should not be used to indicate clinical significance.",Exp
Findings,LB,24,LBSTAT,Completion Status,Char,C66789,,,Record Qualifier,Used to indicate exam not done. Should be null if a result exists in LBORRES.,Perm
Findings,LB,25,LBREASND,Reason Test Not Done,Char,,,,Record Qualifier,"Describes why a measurement or test was not performed, e.g., ""BROKEN EQUIPMENT"", ""SUBJECT REFUSED"", or ""SPECIMEN LOST"". Used in conjunction with LBSTAT when value is ""NOT DONE"".",Perm
Findings,LB,26,LBNAM,Vendor Name,Char,,,,Record Qualifier,The name or identifier of the laboratory that performed the test.,Perm
Findings,LB,27,LBLOINC,LOINC Code,Char,,,,Synonym Qualifier,"1. Code for the lab test from the LOINC code system.
2. The sponsor is expected to provide the dictionary name and version used to map the terms utilizing the Define-XML external codelist attributes.",Perm
Findings,LB,28,LBSPEC,Specimen Type,Char,C78734,,,Record Qualifier,"Defines the type of specimen used for a measurement. Examples: ""SERUM"", ""PLASMA"", ""URINE"", ""DNA"", ""RNA"".",Perm
Findings,LB,29,LBSPCCND,Specimen Condition,Char,C78733,,,Record Qualifier,"Free or standardized text describing the condition of the specimen, e.g., ""HEMOLYZED"", ""ICTERIC"", ""LIPEMIC"".",Perm
Findings,LB,30,LBMETHOD,Method of Test or Examination,Char,C85492,,,Record Qualifier,"Method of the test or examination. Examples: ""EIA"" (Enzyme Immunoassay), ""ELECTROPHORESIS"", ""DIPSTICK"".",Perm
Findings,LB,31,LBLOBXFL,Last Observation Before Exposure Flag,Char,C66742,,,Record Qualifier,"Operationally-derived indicator used to identify the last non-missing value prior to RFXSTDTC. The value should be ""Y"" or null.",Exp
Findings,LB,32,LBBLFL,Baseline Flag,Char,C66742,,,Record Qualifier,"Indicator used to identify a baseline value. Should be ""Y"" or null. Note that LBBLFL is retained for backward compatibility. The authoritative baseline for statistical analysis is in an ADaM dataset.",Perm
Findings,LB,33,LBFAST,Fasting Status,Char,C66742,,,Record Qualifier,"Indicator used to identify fasting status such as ""Y"", ""N"", ""U"", or null if not relevant.",Perm
Findings,LB,34,LBDRVFL,Derived Flag,Char,C66742,,,Record Qualifier,"Used to indicate a derived record. The value should be ""Y"" or null. Records that represent the average of other records, or do not come from the CRF, or are not as originally received or collected are examples of records that might be derived for the submission datasets. If LBDRVFL = ""Y"", then LBORRES may be null, with LBSTRESC and (if numeric) LBSTRESN having the derived value.",Perm
Findings,LB,35,LBTOX,Toxicity,Char,,,,Variable Qualifier,"Description of toxicity quantified by LBTOXGR. The sponsor is expected to provide the name of the scale and version used to map the terms, utilizing the external codelist element in the Define-XML document.",Perm
Findings,LB,36,LBTOXGR,Standard Toxicity Grade,Char,,,,Record Qualifier,"Records toxicity grade value using a standard toxicity scale (such as the NCI CTCAE). If value is from a numeric scale, represent only the number (e.g., ""2"" and not ""Grade 2""). The sponsor is expected to provide the name of the scale and version used to map the terms, utilizing the external codelist element in the Define-XML document.",Perm
Findings,LB,37,VISITNUM,Visit Number,Num,,,,Timing,"1. Clinical encounter number.
2. Numeric version of VISIT, used for sorting.",Exp
Findings,LB,38,VISIT,Visit Name,Char,,,,Timing,"1. Protocol-defined description of clinical encounter.
2. May be used in addition to VISITNUM and/or VISITDY.",Perm
Findings,LB,39,VISITDY,Planned Study Day of Visit,Num,,,,Timing,Planned study day of the visit based upon RFSTDTC in Demographics.,Perm
Findings,LB,40,TAETORD,Planned Order of Element within Arm,Num,,,,Timing,Number that gives the planned order of the Element within the Arm.,Perm
Findings,LB,41,EPOCH,Epoch,Char,C99079,,,Timing,"Epoch associated with the start date/time of the observation, or the date/time of collection if start date/time is not collected.",Perm
Findings,LB,42,LBDTC,Date/Time of Specimen Collection,Char,,,ISO 8601,Timing,Date/time of specimen collection represented in ISO 8601 character format.,Exp
Findings,LB,43,LBENDTC,End Date/Time of Specimen Collection,Char,,,ISO 8601,Timing,End date/time of specimen collection represented in ISO 8601 character format.,Perm
Findings,LB,44,LBDY,Study Day of Specimen Collection,Num,,,,Timing,"1. Study day of specimen collection, measured as integer days.
2. Algorithm for calculations must be relative to the sponsor-defined RFSTDTC variable in Demographics. This formula should be consistent across the submission.",Perm
Findings,LB,45,LBENDY,Study Day of End of Observation,Num,,,,Timing,Actual study day of end of observation expressed in integer days relative to the sponsor-defined RFSTDTC in Demographics.,Perm
Findings,LB,46,LBTPT,Planned Time Point Name,Char,,,,Timing,"1. Text description of time when specimen should be taken.
2. This may be represented as an elapsed time relative to a fixed reference point, such as time of last dose. See LBTPTNUM and LBTPTREF. Examples: ""Start"", ""5 min post"".",Perm
Findings,LB,47,LBTPTNUM,Planned Time Point Number,Num,,,,Timing,Numerical version of LBTPT to aid in sorting.,Perm
Findings,LB,48,LBELTM,Planned Elapsed Time from Time Point Ref,Char,,,ISO 8601,Timing,"Planned elapsed time (in ISO 8601) relative to a planned fixed reference (LBTPTREF). This variable is useful where there are repetitive measures. Not a clock time or a date/time variable. Represented as ISO 8601 duration. Examples: ""-PT15M"" to represent the period of 15 minutes prior to the reference point indicated by LBTPTREF, or ""PT8H"" to represent the period of 8 hours after the reference point indicated by LBTPTREF.",Perm
Findings,LB,49,LBTPTREF,Time Point Reference,Char,,,,Timing,"Name of the fixed reference point referred to by LBELTM, LBTPTNUM, and LBTPT. Examples: PREVIOUS DOSE, PREVIOUS MEAL.",Perm
Findings,LB,50,LBRFTDTC,Date/Time of Reference Time Point,Char,,,ISO 8601,Timing,"Date/time of the reference time point, LBTPTREF.",Perm
Findings,MB,1,STUDYID,Study Identifier,Char,,,,Identifier,Unique identifier for a study.,Req
Findings,MB,2,DOMAIN,Domain Abbreviation,Char,,MB,,Identifier,Two-character abbreviation for the domain.,Req
Findings,MB,3,USUBJID,Unique Subject Identifier,Char,,,,Identifier,Identifier used to uniquely identify a subject across all studies for all applications or submissions involving the product.,Req
Findings,MB,4,FOCID,Focus of Study-Specific Interest,Char,,,,Identifier,"Identification of a focus of study-specific interest on or within a subject or specimen as called out in the protocol for which a measurement, test, or examination was performed.The value in this variable should have inherent semantic meaning.",Perm
Findings,MB,5,MBSEQ,Sequence Number,Num,,,,Identifier,Sequence number to ensure uniqueness of records within a dataset for a subject. May be any valid number.,Req
Findings,MB,6,MBGRPID,Group ID,Char,,,,Identifier,"Optional group identifier, used to link together a block of related records within a subject in a domain. In SDTMIG v3.2, this was an Expected variable. In this version, the core designation has been changed to Permissible.",Perm
Findings,MB,7,MBREFID,Reference ID,Char,,,,Identifier,Internal or external specimen identifier such as the sample ID for a subject sample from which a microbial culture was generated.,Perm
Findings,MB,8,MBSPID,Sponsor-Defined Identifier,Char,,,,Identifier,Sponsor-defined reference number. Perhaps preprinted on the CRF as an explicit line identifier or defined in the sponsor's operational database.,Perm
Findings,MB,9,MBLNKID,Link ID,Char,,,,Identifier,"Identifier used to link related records across domains. This may be a one-to-one or a one-to-many relationship. For example, it may be used to link genetic findings (in the PF domain) about a microbe to the original culture of that microbe (in MB), or to susceptibility records (in MS) if needed.",Perm
Findings,MB,10,MBLNKGRP,Link Group ID,Char,,,,Identifier,Identifier used to link related records across domains. This will usually be a many-to-one relationship.,Perm
Findings,MB,11,MBTESTCD,Microbiology Test or Finding Short Name,Char,C120527,,,Topic,"Short name of the measurement, test, or finding described in MBTEST. It can be used as a column name when converting a dataset from a vertical to a horizontal format. The value in MBTESTCD cannot be longer than 8 characters, nor can it start with a number (e.g., ""1TEST"" is not valid). MBTESTCD cannot contain characters other than letters, numbers, or underscores. Example: ""MCORGIDN"" for Microbial Organism Identification; ""GMNCOC"" for Gram Negative Cocci.",Req
Findings,MB,12,MBTEST,Microbiology Test or Finding Name,Char,C120528,,,Synonym Qualifier,"Verbatim name of the test or examination used to obtain the measurement or finding. The value in MBTEST cannot be longer than 40 characters. Examples:""Microbial Organism Identification; ""Gram Negative Cocci""; ""HIV-1 RNA"".",Req
Findings,MB,13,MBTSTDTL,"Measurement, Test or Examination Detail",Char,,,,Variable Qualifier,"Further description of MBTESTCD and MBTEST. Example: ""VIRAL LOAD"" (when MBTESTCD represents viral genetic material, such as ""HCRNA""); ""QUANTIFICATION"" when MBTESTCD represents any organism being quantified.",Perm
Findings,MB,14,MBCAT,Category,Char,,,,Grouping Qualifier,Used to define a category of related records.,Perm
Findings,MB,15,MBSCAT,Subcategory,Char,,,,Grouping Qualifier,Used to define a further categorization of MBCAT values.,Perm
Findings,MB,16,MBORRES,Result or Finding in Original Units,Char,,,,Result Qualifier,"Result of the Microbiology measurement or finding as originally received or collected. Examples for ""GRAM STAIN"" findings: ""+3 MODERATE"", ""+2 FEW"", ""<10"". Examples for ""CULTURE PLATE"" findings: ""KLEBSIELLA PNEUMONIAE"", ""STREPTOCOCCUS PNEUMONIAE"".",Exp
Findings,MB,17,MBORRESU,Original Units,Char,C71620,,,Variable Qualifier,"Original unit for MBORRES. Example: ""mcg/mL"".",Perm
Findings,MB,18,MBSTRESC,Result or Finding in Standard Format,Char,,,,Result Qualifier,"Contains the result value for all findings, copied or derived from MBORRES in a standard format or standard units. MBSTRESC should store all results or findings in character format; if results are numeric, they should also be stored in numeric format in MBSTRESN. For example, if a test has results ""+3 MODERATE"", ""MOD"", and ""MODERATE"" in MBORRES and these results effectively have the same meaning, they could be represented in standard format in MBSTRESC as ""MODERATE"".",Exp
Findings,MB,19,MBSTRESN,Numeric Result/Finding in Standard Units,Num,,,,Result Qualifier,Used for continuous or numeric results or findings in standard format; copied in numeric format from MBSTRESC. MBSTRESN should store all numeric test results or findings.,Perm
Findings,MB,20,MBSTRESU,Standard Units,Char,C71620,,,Variable Qualifier,Standardized units used for MBSTRESC and MBSTRESN.,Perm
Findings,MB,21,MBRESCAT,Result Category,Char,,,,Variable Qualifier,"Used to categorize the result of a finding in a standard format. In SDTMIG v3.2, this was an Expected variable. In this version, the core designation has been changed to Permissible.",Perm
Findings,MB,22,MBSTAT,Completion Status,Char,C66789,,,Record Qualifier,"Used to indicate that a question was not asked or a test was not done, or that a test was attempted but did not generate a result. Should be null or have a value of ""NOT DONE"".",Perm
Findings,MB,23,MBREASND,Reason Not Done,Char,,,,Record Qualifier,"Reason not done. Used in conjunction with MBSTAT when value is NOT DONE. Examples: ""BROKEN EQUIPMENT"" or ""SUBJECT REFUSED"".",Perm
Findings,MB,24,MBNAM,Laboratory/Vendor Name,Char,,,,Record Qualifier,"Name or identifier of the vendor (e.g., laboratory) that provided the test results.",Perm
Findings,MB,25,MBLOINC,LOINC Code,Char,,,,Synonym Qualifier,"Logical Observation Identifiers Names and Codes (LOINC) code for the topic variable, such as a lab test.",Perm
Findings,MB,26,MBSPEC,Specimen Material Type,Char,C78734,,,Record Qualifier,"Defines the type of specimen used for a measurement. Examples: ""SPUTUM"", ""BLOOD"", ""PUS"".",Perm
Findings,MB,27,MBSPCCND,Specimen Condition,Char,C78733,,,Record Qualifier,"Free or standardized text describing the condition of the specimen. Example: ""CONTAMINATED"".",Perm
Findings,MB,28,MBLOC,Specimen Collection Location,Char,C74456,,,Record Qualifier,Anatomical location relevant to the collection of the measurement.,Perm
Findings,MB,29,MBLAT,Laterality,Char,C99073,,,Variable Qualifier,"Qualifier for specimen collection location further detailing laterality. Examples: ""RIGHT"", ""LEFT"", ""BILATERAL"".",Perm
Findings,MB,30,MBDIR,Directionality,Char,C99074,,,Variable Qualifier,"Qualifier for specimen collection location further detailing directionality. Examples: ""ANTERIOR"", ""LOWER"", ""PROXIMAL"".",Perm
Findings,MB,31,MBMETHOD,Method of Test or Examination,Char,C85492,,,Record Qualifier,"Method of the test or examination. Example: ""GRAM STAIN"",""MICROBIAL CULTURE, LIQUID"", ""QUANTITATIVE REVERSE TRANSCRIPTASE POLYMERASE CHAIN REACTION"".",Exp
Findings,MB,32,MBLOBXFL,Last Observation Before Exposure Flag,Char,C66742,,,Record Qualifier,"Operationally-derived indicator used to identify the last non-missing value prior to RFXSTDTC. The value should be ""Y"" or null.",Perm
Findings,MB,33,MBBLFL,Baseline Flag,Char,C66742,,,Record Qualifier,"Indicator used to identify a baseline value. Should be ""Y"" or null. Note that MBBLFL is retained for backward compatibility. The authoritative baseline for statistical analysis is in an ADaM dataset.",Perm
Findings,MB,34,MBFAST,Fasting Status,Char,C66742,,,Record Qualifier,"Indicator used to identify fasting status. Valid values include ""Y"", ""N"", ""U"" or null if not relevant.",Perm
Findings,MB,35,MBDRVFL,Derived Flag,Char,C66742,,,Record Qualifier,"Used to indicate a derived record (e.g., a record that represents the average of other records such as a computed baseline). Should be ""Y"" or null.",Perm
Findings,MB,36,VISITNUM,Visit Number,Num,,,,Timing,"Clinical encounter number. Numeric version of VISIT, used for sorting.",Exp
Findings,MB,37,VISIT,Visit Name,Char,,,,Timing,Protocol-defined description of a clinical encounter.,Perm
Findings,MB,38,VISITDY,Planned Study Day of Visit,Num,,,,Timing,Planned study day of VISIT. Should be an integer.,Perm
Findings,MB,39,TAETORD,Planned Order of Element within Arm,Num,,,,Timing,Number that gives the planned order of the Element within the Arm for the Element which the specimen collection occurred.,Perm
Findings,MB,40,EPOCH,Epoch,Char,C99079,,,Timing,Epoch associated with the date/time at which the specimen was collected.,Perm
Findings,MB,41,MBDTC,Date/Time of Collection,Char,,,ISO 8601,Timing,Date/time of specimen collection.,Exp
Findings,MB,42,MBDY,Study Day of Visit/Collection/Exam,Num,,,,Timing,"1. Study day of the specimen collection, measured as integer days.
2. Algorithm for calculations must be relative to the sponsor-defined RFSTDTC variable in Demographics. This formula should be consistent across the submission.",Perm
Findings,MB,43,MBTPT,Planned Time Point Name,Char,,,,Timing,"1. Text description of time when specimen should be taken.
2. This may be represented as an elapsed time relative to a fixed reference point, such as time of last dose. See MBTPTNUM and MBTPTREF. Examples: ""Start"", ""5 min post"".",Perm
Findings,MB,44,MBTPTNUM,Planned Time Point Number,Num,,,,Timing,Numeric version of MBTPT used in sorting.,Perm
Findings,MB,45,MBELTM,Planned Elapsed Time from Time Point Ref,Char,,,ISO 8601,Timing,"Planned elapsed time (in ISO 8601) relative to a planned fixed reference (MBTPTREF). This variable is useful where there are repetitive measures. Not a clock time or a date time variable. Represented as an ISO 8601 duration. Examples: ""-PT15M"" to represent the period of 15 minutes prior to the reference point indicated by MBTPTREF, or ""PT8H"" to represent the period of 8 hours after the reference point indicated by MBTPTREF.",Perm
Findings,MB,46,MBTPTREF,Time Point Reference,Char,,,,Timing,"Name of the fixed reference point referred to by MBELTM, MBTPTNUM, and MBTPT. Example: ""PREVIOUS DOSE"".",Perm
Findings,MB,47,MBRFTDTC,Date/Time of Reference Time Point,Char,,,ISO 8601,Timing,"Date/time for a fixed reference time point, MBTPTREF.",Perm
Findings,MS,1,STUDYID,Study Identifier,Char,,,,Identifier,Unique identifier for a study.,Req
Findings,MS,2,DOMAIN,Domain Abbreviation,Char,,MS,,Identifier,Two-character abbreviation for the domain.,Req
Findings,MS,3,USUBJID,Unique Subject Identifier,Char,,,,Identifier,Identifier used to uniquely identify a subject across all studies for all applications or submissions involving the product.,Req
Findings,MS,4,NHOID,Non-host Organism ID,Char,,,,Identifier,"Sponsor-defined identifier for a non-host organism which should only be used when the organism is the subject of the TEST. This variable should be populated with an intuitive name based on the identity of the non-host organism as reported by a lab (Example: ""A/California/7/2009 (H1N1)""). It is not to be used as a qualifier of the result in the record on which it appears.",Perm
Findings,MS,5,MSSEQ,Sequence Number,Num,,,,Identifier,"Sequence number to ensure uniqueness of records within a dataset for a subject (or within a parameter, in the case of the Trial Summary domain). May be any valid number (including decimals) and does not have to start at 1.",Req
Findings,MS,6,MSGRPID,Group ID,Char,,,,Identifier,"Optional group identifier, used to link together a block of related records within a subject in a domain. In SDTMIG v3.2 this was an Expected variable. In this version, the core designation has been changed to Permissible.",Perm
Findings,MS,7,MSREFID,Reference ID,Char,,,,Identifier,Optional internal or external identifier such as an identifier for the culture/isolate being tested for susceptibility.,Perm
Findings,MS,8,MSSPID,Sponsor-Defined Identifier,Char,,,,Identifier,Sponsor-defined reference number. Perhaps preprinted on the CRF as an explicit line identifier or defined in the sponsor's operational database.,Perm
Findings,MS,9,MSLNKID,Link ID,Char,,,,Identifier,"Identifier used to link related records across domains. This may be a one-to-one or a one-to-many relationship. For example, it may be used to link genetic findings (in the PF domain) about a microbe to the original culture of that microbe (in MB), or to susceptibility records (in MS) if needed.",Perm
Findings,MS,10,MSTESTCD,Short Name of Assessment,Char,C128688,,,Topic,"Short character value for MSTEST used as a column name when converting a dataset from a vertical format to a horizontal format. It can be used as a column name when converting a dataset from a vertical to a horizontal format. The value in MSTESTCD cannot be longer than 8 characters, nor can it start with a number (e.g., ""1TEST"" is not valid). MSTESTCD cannot contain characters other than letters, numbers, or underscores. Examples: ""MIC"" for Minimum Inhibitory Concentration; ""MICROSUS"" for Microbial Susceptibility.",Req
Findings,MS,11,MSTEST,Name of Assessment,Char,C128687,,,Synonym Qualifier,"Verbatim name of the test or examination used to obtain the measurement or finding. The value in MSTEST cannot be longer than 40 characters. Examples: ""Minimum Inhibitory Concentration"", ""Microbial Susceptibility"".",Req
Findings,MS,12,MSTSTDTL,"Measurement, Test or Examination Detail",Char,,,,Variable Qualifier,Further description of MSTESTCD and MSTEST.,Perm
Findings,MS,13,MSAGENT,Agent Name,Char,,,,Variable Qualifier,"The name of the agent for which resistance is tested. The agent specified may be based on genetic markers or direct phenotypic drug sensitivity testing. Examples: ""Penicillin"", name of study drug.",Exp
Findings,MS,14,MSMODIFY,Modified Reported Name,Char,,,,Synonym Qualifier,"If MSAGENT is modified to facilitate coding, then MSMODIFY will contain the modified text.",Perm
Findings,MS,15,MSCONC,Agent Concentration,Num,,,,Variable Qualifier,Numeric concentration of agent listed in MSAGENT.,Perm
Findings,MS,16,MSCONCU,Agent Concentration Units,Char,C71620,,,Variable Qualifier,"Units for value of the agent concentration listed in MSCONC. Example: ""mg/L"".",Perm
Findings,MS,17,MSCAT,Category,Char,,,,Grouping Qualifier,Used to define a category of MSTEST values.,Perm
Findings,MS,18,MSSCAT,Subcategory,Char,,,,Grouping Qualifier,Used to define a further categorization of MSCAT values.,Perm
Findings,MS,19,MSORRES,Result or Finding in Original Units,Char,,,,Result Qualifier,Result of the measurement or finding as originally received or collected.,Exp
Findings,MS,20,MSORRESU,Original Units,Char,C71620,,,Variable Qualifier,"Unit for MSORRES. Examples: ""ug/mL"".",Perm
Findings,MS,21,MSSTRESC,Result or Finding in Standard Format,Char,,,,Result Qualifier,"Contains the result value for all findings, copied or derived from MSORRES in a standard format or in standard units. MSSTRESC should store all results or findings in character format; if results are numeric, they should also be stored in numeric format in MSSTRESN. For example, if various tests have results ""NONE"", ""NEG"", and ""NEGATIVE"" in MSORRES and these results effectively have the same meaning, they could be represented in standard format in MSSTRESC as ""NEGATIVE"".",Exp
Findings,MS,22,MSSTRESN,Numeric Result/Finding in Standard Units,Num,,,,Result Qualifier,Used for continuous or numeric results or findings in standard format; copied in numeric format from MSSTRESC. MSSTRESN should store all numeric test results or findings.,Perm
Findings,MS,23,MSSTRESU,Standard Units,Char,C71620,,,Variable Qualifier,"Standardized units used for MSSTRESC and MSSTRESN. Example: ""mol/L"".",Perm
Findings,MS,24,MSNRIND,Normal/Reference Range Indicator,Char,,,,Variable Qualifier,"Used to indicate the value is outside the normal range or reference range. May be defined by MSORNRLO and MSORNRHI or other objective criteria. Examples: ""Y"", ""N"", ""HIGH"", ""LOW"", ""NORMAL"". ""ABNORMAL"".",Perm
Findings,MS,25,MSRESCAT,Result Category,Char,C85495,,,Variable Qualifier,"Used to categorize the result of a finding. In SDTMIG v3.2, MSRESCAT was used to categorize a numeric susceptibility result represented in MSORRES as either ""SUSCEPTIBLE"", ""INTERMEDIATE"", or ""RESISTANT"". However, results from some susceptibility tests may report only a categorical result and not a numeric result. Thus, in order for susceptibility results to be represented consistently, MSRESCAT should no longer be used for this purpose. In this version, the core designation has been changed from Expected to Permissible.",Perm
Findings,MS,26,MSSTAT,Completion Status,Char,C66789,,,Record Qualifier,"Used to indicate that a question was not asked or a test was not done, or a test was attempted but did not generate a result. Should be null or have a value of ""NOT DONE"".",Perm
Findings,MS,27,MSREASND,Reason Not Done,Char,,,,Record Qualifier,"Reason not done. Used in conjunction with MSSTAT when value is ""NOT DONE"".",Perm
Findings,MS,28,MSXFN,External File Path,Char,,,,Record Qualifier,Filename for an external file.,Perm
Findings,MS,29,MSNAM,Laboratory/Vendor Name,Char,,,,Record Qualifier,"Name or identifier of the vendor (e.g., laboratory) that provided the test results.",Perm
Findings,MS,30,MSLOINC,LOINC Code,Char,,,,Synonym Qualifier,Logical Observation Identifiers Names and Codes (LOINC) code for the topic variable such as a lab test.,Perm
Findings,MS,31,MSSPEC,Specimen Material Type,Char,C78734,,,Record Qualifier,"Defines the type of specimen used for a measurement. Examples: ""SPUTUM"".",Perm
Findings,MS,32,MSSPCCND,Specimen Condition,Char,C78733,,,Record Qualifier,"Defines the condition of the specimen. Example: ""CLOUDY"".",Perm
Findings,MS,33,MSSPCUFL,Specimen Usability for the Test,Char,C66742,,,Record Qualifier,"Describes the usability of the specimen for the test. The value will be ""N"" if the specimen is not usable, and null if the specimen is usable.",Perm
Findings,MS,34,MSLOC,Location Used for the Measurement,Char,C74456,,,Record Qualifier,Anatomical location of the subject relevant to the collection of the measurement.,Perm
Findings,MS,35,MSLAT,Laterality,Char,C99073,,,Variable Qualifier,"Qualifier for anatomical location or specimen further detailing laterality. Examples: ""RIGHT"", ""LEFT"", ""BILATERAL"".",Perm
Findings,MS,36,MSDIR,Directionality,Char,C99074,,,Variable Qualifier,"Qualifier for anatomical location or specimen further detailing directionality. Examples: ""ANTERIOR"", ""LOWER"", ""PROXIMAL"".",Perm
Findings,MS,37,MSMETHOD,Method of Test or Examination,Char,C85492,,,Record Qualifier,"Method of the test or examination. Examples: ""EPSILOMETER"", ""MACRO BROTH DILUTION"".",Perm
Findings,MS,38,MSANMETH,Analysis Method,Char,,,,Record Qualifier,Analysis method applied to obtain a summarized result. Analysis method describes the method of secondary processing applied to a complex observation result (e.g. an image or a genetic sequence).,Perm
Findings,MS,39,MSLOBXFL,Last Observation Before Exposure Flag,Char,C66742,,,Record Qualifier,"Operationally-derived indicator used to identify the last non-missing value prior to RFXSTDTC. The value should be ""Y"" or null.",Perm
Findings,MS,40,MSBLFL,Baseline Flag,Char,C66742,,,Record Qualifier,"Indicator used to identify a baseline value. Should be ""Y"" or null. Note that MSBLFL is retained for backward compatibility. The authoritative baseline for statistical analysis is in an ADaM dataset.",Perm
Findings,MS,41,MSFAST,Fasting Status,Char,C66742,,,Record Qualifier,"Indicator used to identify fasting status. Valid values include ""Y"", ""N"", ""U"" or null if not relevant.",Perm
Findings,MS,42,MSDRVFL,Derived Flag,Char,C66742,,,Record Qualifier,"Used to indicate a derived record (e.g., a record that represents the average of other records such as a computed baseline). Should be ""Y"" or null.",Perm
Findings,MS,43,MSEVAL,Evaluator,Char,C78735,,,Record Qualifier,"Role of the person who provided the evaluation. Used only for results that are subjective (e.g., assigned by a person or a group). Examples: ""ADJUDICATION COMMITTEE"", ""INDEPENDENT ASSESSOR"", ""MICROSCOPIST"".",Perm
Findings,MS,44,MSEVALID,Evaluator Identifier,Char,C96777,,,Variable Qualifier,"Used to distinguish multiple evaluators with the same role recorded in MSEVAL. Examples: ""RADIOLOGIST1"" or ""RADIOLOGIST2"".",Perm
Findings,MS,45,MSACPTFL,Accepted Record Flag,Char,C66742,,,Record Qualifier,"In cases where more than one assessor provides an evaluation of a result or response, this flag identifies the record that is considered, by an independent assessor, to be the accepted evaluation. Expected to be ""Y"" or null.",Perm
Findings,MS,46,MSLLOQ,Lower Limit of Quantitation,Num,,,,Variable Qualifier,Indicates the lower limit of quantitation for an assay. Units will be those used for MSSTRESU.,Perm
Findings,MS,47,MSULOQ,Upper Limit of Quantitation,Num,,,,Variable Qualifier,Indicates the upper limit of quantitation for an assay. Units will be those used for MSSTRESU.,Perm
Findings,MS,48,MSREPNUM,Repetition Number,Num,,,,Record Qualifier,"The incidence number of a test that is repeated within a given timeframe for the same test. The level of granularity can vary, e.g., within a time point or within a visit. For example, multiple measurements of blood pressure or multiple analyses of a sample.",Perm
Findings,MS,49,VISITNUM,Visit Number,Num,,,,Timing,"Clinical encounter number. Numeric version of VISIT, used for sorting.",Exp
Findings,MS,50,VISIT,Visit Name,Char,,,,Timing,Protocol-defined description of a clinical encounter.,Perm
Findings,MS,51,VISITDY,Planned Study Day of Visit,Num,,,,Timing,Planned study day of VISIT. Should be an integer.,Perm
Findings,MS,52,TAETORD,Planned Order of Element within Arm,Num,,,,Timing,Number that gives the planned order of the Element within the Arm for the element in which the specimen was collected.,Perm
Findings,MS,53,EPOCH,Epoch,Char,C99079,,,Timing,Epoch associated with the date/time at which the specimen was collected.,Perm
Findings,MS,54,MSDTC,Date/Time of Collection,Char,,,ISO 8601,Timing,Collection date and time of an observation.,Perm
Findings,MS,55,MSENDTC,End Date/Time of Observation,Char,,,ISO 8601,Timing,End date/time of the observation.,Perm
Findings,MS,56,MSDY,Study Day of Visit/Collection/Exam,Num,,,,Timing,Actual study day of visit/collection/exam expressed in integer days relative to the sponsor-defined RFSTDTC in Demographics.,Perm
Findings,MS,57,MSENDY,Study Day of End of Observation,Num,,,,Timing,Actual study day of end of observation expressed in integer days relative to the sponsor-defined RFSTDTC in Demographics.,Perm
Findings,MS,58,MSDUR,Duration,Char,,,ISO 8601,Timing,"Collected duration of an event, intervention, or finding. Used only if collected on the CRF and not derived.",Perm
Findings,MS,59,MSTPT,Planned Time Point Name,Char,,,,Timing,"Text description of time when a measurement or observation should be taken as defined in the protocol. This may be represented as an elapsed time relative to a fixed reference point, such as time of last dose. See MSTPTNUM and MSTPTREF.",Perm
Findings,MS,60,MSTPTNUM,Planned Time Point Number,Num,,,,Timing,Numeric version of planned time point used in sorting.,Perm
Findings,MS,61,MSELTM,Planned Elapsed Time from Time Point Ref,Char,,,ISO 8601,Timing,"Planned Elapsed time relative to a planned fixed reference (MSTPTREF) such as ""Previous Dose"" or ""Previous Meal"". This variable is useful where there are repetitive measures. Not a clock time or a date/time variable, but an interval, represented as ISO duration.",Perm
Findings,MS,62,MSTPTREF,Time Point Reference,Char,,,,Timing,"Description of the fixed reference point referred to by MSELTM, MSTPTNUM, and MSTPT. Example: ""PREVIOUS DOSE"".",Perm
Findings,MS,63,MSRFTDTC,Date/Time of Reference Time Point,Char,,,ISO 8601,Timing,Date/time for a fixed reference time point defined by MSTPTREF.,Perm
Findings,MS,64,MSSTRF,Start Relative to Reference Period,Char,C66728,,,Timing,"Identifies the start of the observation as being before, during, or after the sponsor-defined reference period. The sponsor-defined reference period is a continuous period of time defined by a discrete starting point and a discrete ending point represented by RFSTDTC and RFENDTC in Demographics.",Perm
Findings,MS,65,MSENRF,End Relative to Reference Period,Char,C66728,,,Timing,"Identifies the end of the observation as being before, during or after the sponsor-defined reference period. The sponsor-defined reference period is a continuous period of time defined by a discrete starting point and a discrete ending point represented by RFSTDTC and RFENDTC in Demographics.",Perm
Findings,MS,66,MSEVLINT,Evaluation Interval,Char,,,ISO 8601,Timing,"Duration of interval associated with an observation such as a finding MSTESTCD. Example: ""-P2M"" to represent a period of the past 2 months before the assessment.",Perm
Findings,MS,67,MSEVINTX,Evaluation Interval Text,Char,,,,Timing,"Evaluation interval associated with an observation, where the interval is not able to be represented in ISO 8601 format. Examples: ""LIFETIME"", ""LAST NIGHT"", ""RECENTLY"", ""OVER THE LAST FEW WEEKS"".",Perm
Findings,MS,68,MSSTRTPT,Start Relative to Reference Time Point,Char,C66728,,,Timing,Identifies the start of the observation as being before or after the sponsor-defined reference time point defined by variable MSSTTPT.,Perm
Findings,MS,69,MSSTTPT,Start Reference Time Point,Char,,,,Timing,"Description or date/time, in ISO 8601 or other character format, of the sponsor-defined reference point referred to by MSSTRTPT. Examples: ""2003-12-15"" or ""VISIT 1"".",Perm
Findings,MS,70,MSENRTPT,End Relative to Reference Time Point,Char,C66728,,,Timing,Identifies the end of the observation as being before or after the sponsor-defined reference time point defined by variable MSENTPT.,Perm
Findings,MS,71,MSENTPT,End Reference Time Point,Char,,,,Timing,"Description or date/time in ISO 8601 or other character format of the sponsor-defined reference point referred to by MSENRTPT. Examples: ""2003-12-25"" or ""VISIT 2"".",Perm
Findings,MI,1,STUDYID,Study Identifier,Char,,,,Identifier,Unique identifier for a study.,Req
Findings,MI,2,DOMAIN,Domain Abbreviation,Char,,MI,,Identifier,Two-character abbreviation for the domain.,Req
Findings,MI,3,USUBJID,Unique Subject Identifier,Char,,,,Identifier,Identifier used to uniquely identify a subject across all studies for all applications or submissions involving the product.,Req
Findings,MI,4,MISEQ,Sequence Number,Num,,,,Identifier,Sequence number given to ensure uniqueness of subject records within a domain. May be any valid number.,Req
Findings,MI,5,MIGRPID,Group ID,Char,,,,Identifier,Used to tie together a block of related records in a single domain for a subject. This is not the treatment group number.,Perm
Findings,MI,6,MIREFID,Reference ID,Char,,,,Identifier,Internal or external specimen identifier. Example: Specimen barcode number.,Perm
Findings,MI,7,MISPID,Sponsor-Defined Identifier,Char,,,,Identifier,Sponsor-defined reference number. Perhaps preprinted on the CRF as an explicit line identifier or defined in the sponsor's operational database. Example: Line number from the MI Findings page.,Perm
Findings,MI,8,MITESTCD,Microscopic Examination Short Name,Char,C132263,,,Topic,"Short name of the measurement, test, or examination described in MITEST. It can be used as a column name when converting a dataset from a vertical to a horizontal format. The value in MITESTCD cannot be longer than 8 characters, nor can it start with a number (e.g., ""1TEST"" is not valid). MITESTCD cannot contain characters other than letters, numbers, or underscores. Examples: ""HER2"", ""BRCA1"",""TTF1"".",Req
Findings,MI,9,MITEST,Microscopic Examination Name,Char,C132262,,,Synonym Qualifier,"Verbatim name of the test or examination used to obtain the measurement or finding. The value in MITEST cannot be longer than 40 characters. Examples: ""Human Epidermal Growth Factor Receptor 2"", ""Breast Cancer Susceptibility Gene 1"", ""Thyroid Transcription Factor 1"".",Req
Findings,MI,10,MITSTDTL,Microscopic Examination Detail,Char,C125922,,,Record Qualifier,"Further description of the test performed in producing the MI result. This would be used to represent specific attributes, such as intensity score or percentage of cells displaying presence of the biomarker or compound.",Perm
Findings,MI,11,MICAT,Category for Microscopic Finding,Char,,,,Grouping Qualifier,Used to define a category of related records.,Perm
Findings,MI,12,MISCAT,Subcategory for Microscopic Finding,Char,,,,Grouping Qualifier,Used to define a further categorization of MICAT.,Perm
Findings,MI,13,MIORRES,Result or Finding in Original Units,Char,,,,Result Qualifier,Result of the histopathology measurement or finding as originally received or collected.,Exp
Findings,MI,14,MIORRESU,Original Units,Char,C71620,,,Variable Qualifier,Original unit for MIORRES.,Perm
Findings,MI,15,MISTRESC,Character Result/Finding in Std Format,Char,,,,Result Qualifier,"Contains the result value for all findings, copied or derived from MIORRES in a standard format or standard units. MISTRESC should store all results or findings in character format; if results are numeric, they should also be stored in numeric format in MISTRESN.",Exp
Findings,MI,16,MISTRESN,Numeric Result/Finding in Standard Units,Num,,,,Result Qualifier,Used for continuous or numeric results or findings in standard format; copied in numeric format from MISTRESC. MISTRESN should store all numeric test results or findings.,Perm
Findings,MI,17,MISTRESU,Standard Units,Char,C71620,,,Variable Qualifier,Standardized unit used for MISTRESC and MISTRESN.,Perm
Findings,MI,18,MIRESCAT,Result Category,Char,,,,Variable Qualifier,"Used to categorize the result of a finding. Examples: ""MALIGNANT"" or ""BENIGN"" for tumor findings.",Perm
Findings,MI,19,MISTAT,Completion Status,Char,C66789,,,Record Qualifier,"Used to indicate examination not done or result is missing. Should be null if a result exists in MIORRES or have a value of ""NOT DONE"" when MIORRES = ""NULL"".",Perm
Findings,MI,20,MIREASND,Reason Not Done,Char,,,,Record Qualifier,"Reason not done. Used in conjunction with MISTAT when value is NOT DONE. Examples: ""SAMPLE AUTOLYZED"", ""SPECIMEN LOST"".",Perm
Findings,MI,21,MINAM,Laboratory/Vendor Name,Char,,,,Record Qualifier,"Name or identifier of the vendor (e.g., laboratory) that provided the test results.",Perm
Findings,MI,22,MISPEC,Specimen Material Type,Char,C78734,,,Record Qualifier,"Subject of the observation. Defines the type of specimen used for a measurement. Examples: ""TISSUE"", ""BLOOD"", ""BONE MARROW"".",Req
Findings,MI,23,MISPCCND,Specimen Condition,Char,C78733,,,Record Qualifier,"Free or standardized text describing the condition of the specimen. Example: ""AUTOLYZED"".",Exp
Findings,MI,24,MILOC,Specimen Collection Location,Char,C74456,,,Record Qualifier,"Location relevant to the collection of the specimen. Examples: ""LUNG"", ""KNEE JOINT"", ""ARM"", ""THIGH"".",Perm
Findings,MI,25,MILAT,Specimen Laterality within Subject,Char,C99073,,,Variable Qualifier,"Qualifier for laterality of the location of the specimen in MILOC. Examples: ""LEFT"", ""RIGHT"", ""BILATERAL"".",Perm
Findings,MI,26,MIDIR,Specimen Directionality within Subject,Char,C99074,,,Variable Qualifier,"Qualifier for directionality of the location of the specimen in MILOC. Examples: ""DORSAL"", ""PROXIMAL"".",Perm
Findings,MI,27,MIMETHOD,Method of Test or Examination,Char,C85492,,,Record Qualifier,"Method of the test or examination. This could include the technique or type of staining used for the slides. Examples: ""IHC"", ""Crystal Violet"", ""Safranin"", ""Trypan Blue"", or ""Propidium Iodide"".",Perm
Findings,MI,28,MILOBXFL,Last Observation Before Exposure Flag,Char,C66742,,,Record Qualifier,"Operationally-derived indicator used to identify the last non-missing value prior to RFXSTDTC. The value should be ""Y"" or null.",Perm
Findings,MI,29,MIBLFL,Baseline Flag,Char,C66742,,,Record Qualifier,"Indicator used to identify a baseline value. The value should be ""Y"" or null. Note that MIBLFL is retained for backward compatibility. The authoritative baseline flag for statistical analysis is in an ADaM dataset.",Exp
Findings,MI,30,MIEVAL,Evaluator,Char,C78735,,,Record Qualifier,"Role of the person who provided the evaluation. Example: ""PATHOLOGIST"", ""PEER REVIEW"", ""SPONSOR PATHOLOGIST"".",Perm
Findings,MI,31,VISITNUM,Visit Number,Num,,,,Timing,"1. Clinical encounter number.
2. Numeric version of VISIT, used for sorting.",Exp
Findings,MI,32,VISIT,Visit Name,Char,,,,Timing,"1. Protocol-defined description of clinical encounter.
2. May be used in addition to VISITNUM and/or VISITDY.",Perm
Findings,MI,33,VISITDY,Planned Study Day of Visit,Num,,,,Timing,Planned study day of the visit based upon RFSTDTC in Demographics.,Perm
Findings,MI,34,TAETORD,Planned Order of Element within Arm,Num,,,,Timing,Number that gives the planned order of the Element within the Arm for the element in which the assessment was made.,Perm
Findings,MI,35,EPOCH,Epoch,Char,C99079,,,Timing,Epoch associated with the date/time at which the specimen was collected.,Perm
Findings,MI,36,MIDTC,Date/Time of Specimen Collection,Char,,,ISO 8601,Timing,"Date/time of specimen collection, in ISO 8601 format.",Exp
Findings,MI,37,MIDY,Study Day of Specimen Collection,Num,,,,Timing,"Study day of specimen collection, in integer days. The algorithm for calculations must be relative to the sponsor-defined RFSTDTC variable in the Demographics (DM) domain.",Perm
Findings,MO,1,STUDYID,Study Identifier,Char,,,,Identifier,Unique identifier for a study.,Req
Findings,MO,2,DOMAIN,Domain Abbreviation,Char,,MO,,Identifier,Two-character abbreviation for the domain.,Req
Findings,MO,3,USUBJID,Unique Subject Identifier,Char,,,,Identifier,Identifier used to uniquely identify a subject across all studies for all applications or submissions involving the product.,Req
Findings,MO,4,MOSEQ,Sequence Number,Num,,,,Identifier,Sequence number given to ensure uniqueness of subject records within a domain. May be any valid number.,Req
Findings,MO,5,MOGRPID,Group ID,Char,,,,Identifier,Used to tie together a block of related records in a single domain for a subject.,Perm
Findings,MO,6,MOREFID,Reference ID,Char,,,,Identifier,Internal or external procedure identifier.,Perm
Findings,MO,7,MOSPID,Sponsor-Defined Identifier,Char,,,,Identifier,Sponsor-defined reference number. Perhaps preprinted on the CRF as an explicit line identifier or defined in the sponsor's operational database. Example: Line number from the procedure or test page.,Perm
Findings,MO,8,MOLNKID,Link ID,Char,,,,Identifier,Identifier used to link results of a procedure to the procedure performed.,Perm
Findings,MO,9,MOTESTCD,Test or Examination Short Name,Char,,,,Topic,"Short name of the measurement, test, or examination described in MOTEST. It can be used as a column name when converting a dataset from a vertical to a horizontal format. The value in MOTESTCD cannot be longer than 8 characters, nor can it start with a number (e.g., ""1TEST"" is not valid). MOTESTCD cannot contain characters other than letters, numbers, or underscores. Examples: ""VOLUME"", ""INTP"".",Req
Findings,MO,10,MOTEST,Test or Examination Name,Char,,,,Synonym Qualifier,"Verbatim name of the test or examination used to obtain the measurement or finding. The value in MOTEST cannot be longer than 40 characters. Examples: ""Volume"", ""Interpretation"".",Req
Findings,MO,11,MOCAT,Category for Test,Char,,,,Grouping Qualifier,Used to categorize observations across subjects.,Perm
Findings,MO,12,MOSCAT,Subcategory for Test,Char,,,,Grouping Qualifier,A further categorization.,Perm
Findings,MO,13,MOPOS,Position of Subject,Char,C71148,,,Record Qualifier,"Position of the subject during a measurement or examination. Examples: ""SUPINE"", ""STANDING"", ""SITTING"".",Perm
Findings,MO,14,MOORRES,Result or Finding in Original Units,Char,,,,Result Qualifier,Result of the procedure measurement or finding as originally received or collected.,Exp
Findings,MO,15,MOORRESU,Original Units,Char,C71620,,,Variable Qualifier,Original units in which the data were collected. The unit for MOORRES.,Perm
Findings,MO,16,MOSTRESC,Character Result/Finding in Std Format,Char,,,,Result Qualifier,"Contains the result value for all findings, copied or derived from MOORRES in a standard format or standard units. MOSTRESC should store all results or findings in character format; if results are numeric, they should also be stored in numeric format in MOSTRESN.",Exp
Findings,MO,17,MOSTRESN,Numeric Result/Finding in Standard Units,Num,,,,Result Qualifier,Used for continuous or numeric results or findings in standard format; copied in numeric format from MOSTRESC. MOSTRESN should store all numeric test results or findings.,Perm
Findings,MO,18,MOSTRESU,Standard Units,Char,C71620,,,Variable Qualifier,Standardized unit used for MOSTRESC or MOSTRESN.,Perm
Findings,MO,19,MOSTAT,Completion Status,Char,C66789,,,Record Qualifier,"Used to indicate a test was not done, or a measurement was not taken. Should be null if a result exists in MOORRES.",Perm
Findings,MO,20,MOREASND,Reason Test Not Performed,Char,,,,Record Qualifier,"Describes why a measurement or test was not performed. Examples: ""BROKEN EQUIPMENT"" or ""SUBJECT REFUSED"". Used in conjunction with MOSTAT when value is ""NOT DONE"".",Perm
Findings,MO,21,MOXFN,External File Path,Char,,,,Record Qualifier,File path to the external file.,Perm
Findings,MO,22,MONAM,Vendor Name,Char,,,,Record Qualifier,Name or identifier of the laboratory or vendor who provided the test results.,Perm
Findings,MO,23,MOLOC,Location Used for Measurement,Char,C74456,,,Record Qualifier,"Location relevant to the collection of the measurement. Examples: ""BRAIN"", ""KIDNEY"", ""LIVER"", etc.",Perm
Findings,MO,24,MOLAT,Specimen Laterality within Subject,Char,C99073,,,Variable Qualifier,"Qualifier for laterality of the specimen within the subject for paired specimens. Examples: ""LEFT"", ""RIGHT"", ""BILATERAL"".",Perm
Findings,MO,25,MODIR,Specimen Directionality within Subject,Char,C99074,,,Variable Qualifier,"Qualifier for directionality of the specimen within the subject. Examples: ""DORSAL"", ""PROXIMAL"".",Perm
Findings,MO,26,MOPORTOT,Portion or Totality,Char,C99075,,,Variable Qualifier,"Qualifier for anatomical location or specimen further detailing the portion of totality which means arrangement of, or apportioning of. Examples: ""ENTIRE"", ""PARTIAL"".",Perm
Findings,MO,27,MOMETHOD,Method of Procedure Test,Char,C85492,,,Record Qualifier,Method of the test or examination result.,Perm
Findings,MO,28,MOANMETH,Analysis Method,Char,,,,Record Qualifier,"Analysis method applied to obtain a summarized result. Example: ""STEREOLOGY"".",Perm
Findings,MO,29,MOLOBXFL,Last Observation Before Exposure Flag,Char,C66742,,,Record Qualifier,"Operationally-derived indicator used to identify the last non-missing value prior to RFXSTDTC. The value should be ""Y"" or null.",Perm
Findings,MO,30,MOBLFL,Baseline Flag,Char,C66742,,,Record Qualifier,"Indicator used to identify a baseline value. The value should be ""Y"" or ""null"". Note that MOBLFL is retained for backward compatibility. The authoritative baseline flag for statistical analysis is in an ADaM dataset.",Exp
Findings,MO,31,MODRVFL,Derived Flag,Char,C66742,,,Record Qualifier,"Used to indicate a derived record. The value should be ""Y"" or null. Records that represent the average of other records, or that do not come from the CRF, or are not as originally collected or received are examples of records that would be derived for the submission datasets. If MODRVFL = ""Y"", then MOORRES could be null, and (if numeric) MOSTRESN have the derived value.",Perm
Findings,MO,32,MOEVAL,Evaluator,Char,C78735,,,Record Qualifier,"Role of the person who provided the evaluation. Used only for results that are subjective (e.g., assigned by a person or a group). Should be null for records that contain collected or derived data. Examples: ""INVESTIGATOR"", ""ADJUDICATION COMMITTEE"", ""VENDOR"".",Perm
Findings,MO,33,VISITNUM,Visit Number,Num,,,,Timing,"1. Clinical encounter number.
2. Numeric version of VISIT, used for sorting.",Exp
Findings,MO,34,VISIT,Visit Name,Char,,,,Timing,"1. Protocol-defined description of clinical encounter.
2. May be used in addition to VISITNUM and/or VISITDY.",Perm
Findings,MO,35,VISITDY,Planned Study Day of Visit,Num,,,,Timing,Planned study day of the visit based upon RFSTDTC in Demographics.,Perm
Findings,MO,36,TAETORD,Planned Order of Element within Arm,Num,,,,Timing,Number that gives the planned order of the Element within the Arm for the Element in which the assessment was made.,Perm
Findings,MO,37,EPOCH,Epoch,Char,C99079,,,Timing,Epoch associated with the date/time at which the observation was made.,Perm
Findings,MO,38,MODTC,Date/Time of Test,Char,,,ISO 8601,Timing,Date of test.,Exp
Findings,MO,39,MODY,Study Day of Test,Num,,,,Timing,"1. Study day of the procedure or test, measured as integer days.
2. Algorithm for calculations must be relative to the sponsor-defined RFSTDTC variable in Demographics.",Perm
Findings,MO,40,MOTPT,Planned Time Point Name,Char,,,,Timing,"1. Text Description of time when measurement should be taken.
2. This may be represented as an elapsed time relative to a fixed reference point, such as time of last dose. See MOTPTNUM and MOTPTREF. Examples: ""Start"", ""5 min post"".",Perm
Findings,MO,41,MOTPTNUM,Planned Time Point Number,Num,,,,Timing,Numerical version of MOTPT to aid in sorting.,Perm
Findings,MO,42,MOELTM,Planned Elapsed Time from Time Point Ref,Char,,,ISO 8601,Timing,"Planned elapsed time (in ISO 8601) relative to a fixed time point reference (MOTPTREF). Not a clock time or a date time variable. Represented as an ISO 8601 duration. Examples: ""-PT15M"" to represent the period of 15 minutes prior to the reference point indicated by MOTPTREF, or ""PT8H"" to represent the period of 8 hours after the reference point indicated by MOTPTREF.",Perm
Findings,MO,43,MOTPTREF,Time Point Reference,Char,,,,Timing,"Name of the fixed reference point referred to by MOELTM, MOTPTNUM, and MOTPT. Examples: ""PREVIOUS DOSE"", ""PREVIOUS MEAL"".",Perm
Findings,MO,44,MORFTDTC,Date/Time of Reference Time Point,Char,,,ISO 8601,Timing,"Date/time of the reference time point, MOTPTREF.",Perm
Findings,CV,1,STUDYID,Study Identifier,Char,,,,Identifier,Unique identifier for a study.,Req
Findings,CV,2,DOMAIN,Domain Abbreviation,Char,,CV,,Identifier,Two-character abbreviation for the domain.,Req
Findings,CV,3,USUBJID,Unique Subject Identifier,Char,,,,Identifier,Identifier used to uniquely identify a subject across all studies for all applications or submissions involving the product.,Req
Findings,CV,4,CVSEQ,Sequence Number,Num,,,,Identifier,Sequence number to ensure uniqueness of records within a dataset for a subject. May be any valid number (including decimals) and does not have to start at 1.,Req
Findings,CV,5,CVGRPID,Group ID,Char,,,,Identifier,"Optional group identifier, used to link together a block of related records within a subject in a domain.",Perm
Findings,CV,6,CVREFID,Reference ID,Char,,,,Identifier,Optional internal or external identifier.,Perm
Findings,CV,7,CVSPID,Sponsor-Defined Identifier,Char,,,,Identifier,"Sponsor-defined identifier. Example: ""preprinted line identifier on a Case Report Form"".",Perm
Findings,CV,8,CVLNKID,Link ID,Char,,,,Identifier,Identifier used to link related records across domains. This may be a one-to-one or a one-to-many relationship.,Perm
Findings,CV,9,CVLNKGRP,Link Group,Char,,,,Identifier,Identifier used to link related records across domains. This will usually be a many-to-one relationship.,Perm
Findings,CV,10,CVTESTCD,Short Name of Cardiovascular Test,Char,C101847,,,Topic,"Short name of the measurement, test, or examination described in CVTEST. It can be used as a column name when converting a dataset from a vertical to a horizontal format. The value in CVTESTCD cannot be longer than 8 characters, nor can it start with a number (e.g., ""1TEST""). CVTESTCD cannot contain characters other than letters, numbers, or underscores.",Req
Findings,CV,11,CVTEST,Name of Cardiovascular Test,Char,C101846,,,Synonym Qualifier,Long name For CVTESTCD. The value in CVTEST cannot be longer than 40 characters.,Req
Findings,CV,12,CVCAT,Category for Cardiovascular Test,Char,,,,Grouping Qualifier,Used to define a category of topic-variable values.,Perm
Findings,CV,13,CVSCAT,Subcategory for Cardiovascular Test,Char,,,,Grouping Qualifier,Used to define a further categorization of CVCAT values.,Perm
Findings,CV,14,CVPOS,Position of Subject During Observation,Char,C71148,,,Record Qualifier,"Position of the subject during a measurement or examination. Examples: ""SUPINE"", ""STANDING"", ""SITTING"".",Perm
Findings,CV,15,CVORRES,Result or Finding in Original Units,Char,,,,Result Qualifier,Result of the measurement or finding as originally received or collected.,Exp
Findings,CV,16,CVORRESU,Original Units,Char,C71620,,,Variable Qualifier,Original units in which the data were collected. Unit for CVORRES.,Perm
Findings,CV,17,CVSTRESC,Character Result/Finding in Std Format,Char,,,,Result Qualifier,"Contains the result value for all findings, copied or derived from CVORRES in a standard format or in standard units. CVSTRESC should store all results or findings in character format; if results are numeric, they should also be stored in numeric format in CVSTRESN. For example, if various tests have results ""NONE"", ""NEG"", and ""NEGATIVE"" in CVORRES and these results effectively have the same meaning, they could be represented in standard format in CVSTRESC as ""NEGATIVE"".",Exp
Findings,CV,18,CVSTRESN,Numeric Result/Finding in Standard Units,Num,,,,Result Qualifier,Used for continuous or numeric results or findings in standard format; copied in numeric format from CVSTRESC. CVSTRESN should store all numeric test results or findings.,Perm
Findings,CV,19,CVSTRESU,Standard Units,Char,C71620,,,Variable Qualifier,Standardized units used for CVSTRESC and CVSTRESN.,Perm
Findings,CV,20,CVSTAT,Completion Status,Char,C66789,,,Record Qualifier,"Used to indicate that a question was not asked or a test was not done, or a test was attempted but did not generate a result. Should be null or have a value of ""NOT DONE"".",Perm
Findings,CV,21,CVREASND,Reason Not Done,Char,,,,Record Qualifier,"Describes why a measurement or test was not performed. Examples: ""BROKEN EQUIPMENT"" or ""SUBJECT REFUSED"". Used in conjunction with CVSTAT when value is ""NOT DONE"".",Perm
Findings,CV,22,CVLOC,Location Used for the Measurement,Char,C74456,,,Record Qualifier,"Anatomical location of the subject relevant to the collection of the measurement. Example: ""HEART"", ""LEFT VENTRICLE"".",Perm
Findings,CV,23,CVLAT,Laterality,Char,C99073,,,Variable Qualifier,"Qualifier for anatomical location or specimen further detailing laterality. Examples: ""RIGHT"", ""LEFT"", ""BILATERAL"", ""UNILATERAL"".",Perm
Findings,CV,24,CVDIR,Directionality,Char,C99074,,,Variable Qualifier,"Qualifier for anatomical location or specimen further detailing directionality. Examples: ""ANTERIOR"", ""LOWER"", ""PROXIMAL"".",Perm
Findings,CV,25,CVMETHOD,Method of Test or Examination,Char,C85492,,,Record Qualifier,Method used to create the result.,Perm
Findings,CV,26,CVLOBXFL,Last Observation Before Exposure Flag,Char,C66742,,,Record Qualifier,"Operationally-derived indicator used to identify the last non-missing value prior to RFXSTDTC. The value should be ""Y"" or null.",Exp
Findings,CV,27,CVBLFL,Baseline Flag,Char,C66742,,,Record Qualifier,"Indicator used to identify a baseline value. Should be ""Y"" or null. Note that CVBLFL is retained for backward compatibility. The authoritative baseline for statistical analysis is in an ADaM dataset.",Perm
Findings,CV,28,CVDRVFL,Derived Flag,Char,C66742,,,Record Qualifier,"Used to indicate a derived record (e.g., a record that represents the average of other records such as a computed baseline). Should be ""Y"" or null.",Perm
Findings,CV,29,CVEVAL,Evaluator,Char,C78735,,,Record Qualifier,"Role of the person who provided the evaluation. Used only for results that are subjective (e.g., assigned by a person or a group). Examples: ""ADJUDICATION COMMITTEE"", "" INDEPENDENT ASSESSOR"", ""RADIOLOGIST"".",Perm
Findings,CV,30,CVEVALID,Evaluator Identifier,Char,C96777,,,Variable Qualifier,"Used to distinguish multiple evaluators with the same role recorded in CVEVAL. Examples: ""RADIOLOGIST1"" or ""RADIOLOGIST2"".",Perm
Findings,CV,31,VISITNUM,Visit Number,Num,,,,Timing,"1. Clinical encounter number.
2. Numeric version of VISIT, used for sorting.",Exp
Findings,CV,32,VISIT,Visit Name,Char,,,,Timing,Protocol-defined description of clinical encounter. May be used in addition to VISITNUM and/or VISITDY.,Perm
Findings,CV,33,VISITDY,Planned Study Day of Visit,Num,,,,Timing,Planned study day of VISIT. Should be an integer.,Perm
Findings,CV,34,TAETORD,Planned Order of Element within Arm,Num,,,,Timing,Number that gives the planned order of the Element within the Arm for the element in which the assessment was made.,Perm
Findings,CV,35,EPOCH,Epoch,Char,C99079,,,Timing,Epoch associated with the date/time at which the assessment was made.,Perm
Findings,CV,36,CVDTC,Date/Time of Test,Char,,,ISO 8601,Timing,Collection date and time of an observation.,Exp
Findings,CV,37,CVDY,Study Day of Visit/Collection/Exam,Num,,,,Timing,Actual study day of visit/collection/exam expressed in integer days relative to the sponsor-defined RFSTDTC in Demographics.,Perm
Findings,CV,38,CVTPT,Planned Time Point Name,Char,,,,Timing,"Text description of time when a measurement or observation should be taken, as defined in the protocol. This may be represented as an elapsed time relative to a fixed reference point, such as time of last dose. See CVTPTNUM and CVTPTREF.",Perm
Findings,CV,39,CVTPTNUM,Planned Time Point Number,Num,,,,Timing,Numeric version of planned time point used in sorting.,Perm
Findings,CV,40,CVELTM,Planned Elapsed Time from Time Point Ref,Char,,,ISO 8601,Timing,"Planned Elapsed time relative to a planned fixed reference (CVTPTREF) such as ""PREVIOUS DOSE"" or ""PREVIOUS MEAL"". This variable is useful where there are repetitive measures. Not a clock time or a date/time variable, but an interval, represented as ISO duration.",Perm
Findings,CV,41,CVTPTREF,Time Point Reference,Char,,,,Timing,"Description of the fixed reference point referred to by CVELTM, CVTPTNUM, and CVTPT. Examples: ""PREVIOUS DOSE"", ""PREVIOUS MEAL"".",Perm
Findings,CV,42,CVRFTDTC,Date/Time of Reference Time Point,Char,,,ISO 8601,Timing,Date/time for a fixed reference time point defined by CVTPTREF.,Perm
Findings,MK,1,STUDYID,Study Identifier,Char,,,,Identifier,Unique identifier for a study.,Req
Findings,MK,2,DOMAIN,Domain Abbreviation,Char,,MK,,Identifier,Two-character abbreviation for the domain.,Req
Findings,MK,3,USUBJID,Unique Subject Identifier,Char,,,,Identifier,Identifier used to uniquely identify a subject across all studies for all applications or submissions involving the product.,Req
Findings,MK,4,MKSEQ,Sequence Number,Num,,,,Identifier,"Sequence number to ensure uniqueness of records within a dataset for a subject (or within a parameter, in the case of the Trial Summary domain). May be any valid number (including decimals) and does not have to start at 1.",Req
Findings,MK,5,MKGRPID,Group ID,Char,,,,Identifier,Used to link together a block of related records within a subject in a domain.,Perm
Findings,MK,6,MKREFID,Reference ID,Char,,,,Identifier,Optional internal or external identifier such as lab specimen ID or a medical image.,Perm
Findings,MK,7,MKSPID,Sponsor-Defined Identifier,Char,,,,Identifier,Sponsor-defined identifier. Example: Preprinted line identifier on a Concomitant Medications page.,Perm
Findings,MK,8,MKLNKID,Link ID,Char,,,,Identifier,Identifier used to link related records across domains. This may be a one-to-one or a one-to-many relationship.,Perm
Findings,MK,9,MKLNKGRP,Link Group ID,Char,,,,Identifier,Identifier used to link related records across domains. This will usually be a many-to-one relationship.,Perm
Findings,MK,10,MKTESTCD,Short Name of Musculoskeletal Test,Char,C127269,,,Topic,"Short character value for MKTEST used as a column name when converting a dataset from a vertical format to a horizontal format. It can be used as a column name when converting a dataset from a vertical to a horizontal format. The value in MKTESTCD cannot be longer than 8 characters, nor can it start with a number (e.g., ""1TEST"" is not valid). MKTESTCD cannot contain characters other than letters, numbers, or underscores. Examples: ""TNDRIND"", ""SWLLIND"", ""SGJSNSCR"".",Req
Findings,MK,11,MKTEST,Name of Musculoskeletal Test,Char,C127270,,,Synonym Qualifier,"Long name For MKTESTCD. Examples: ""Tenderness Indicator"", ""Swollen Indicator"", ""Sharp/Genant JSN Score"".",Req
Findings,MK,12,MKCAT,Category for Musculoskeletal Test,Char,,,,Grouping Qualifier,"Used to define a category of topic-variable values. Examples: ""SWOLLEN/TENDER JOINT ASSESSMENT"".",Perm
Findings,MK,13,MKSCAT,Subcategory for Musculoskeletal Test,Char,,,,Grouping Qualifier,Used to define a further categorization of MKCAT values.,Perm
Findings,MK,14,MKPOS,Position of Subject,Char,C71148,,,Record Qualifier,"Position of the subject during a measurement or examination. Examples: ""SUPINE"", ""STANDING"", ""SITTING"".",Perm
Findings,MK,15,MKORRES,Result or Finding in Original Units,Char,,,,Result Qualifier,Result of the measurement or finding as originally received or collected.,Exp
Findings,MK,16,MKORRESU,Original Units,Char,C71620,,,Variable Qualifier,Unit for MKORRES.,Perm
Findings,MK,17,MKSTRESC,Character Result/Finding in Std Format,Char,,,,Result Qualifier,"Contains the result value for all findings, copied or derived from MKORRES in a standard format or in standard units. MKSTRESC should store all results or findings in character format; if results are numeric, they should also be stored in numeric format in MKSTRESN. For example, if various tests have results ""NONE"", ""NEG"", and ""NEGATIVE"" in MKORRES and these results effectively have the same meaning, they could be represented in standard format in MKSTRESC as ""NEGATIVE"".",Exp
Findings,MK,18,MKSTRESN,Numeric Result/Finding in Standard Units,Num,,,,Result Qualifier,Used for continuous or numeric results or findings in standard format; copied in numeric format from MKSTRESC. MKSTRESN should store all numeric test results or findings.,Perm
Findings,MK,19,MKSTRESU,Standard Units,Char,C71620,,,Variable Qualifier,Standardized units used for MKSTRESC and MKSTRESN.,Perm
Findings,MK,20,MKSTAT,Completion Status,Char,C66789,,,Record Qualifier,"Used to indicate that a question was not asked or a test was not done, or that a test was attempted but did not generate a result. Should be null if a result exists in MKORRES.",Perm
