Class,Dataset Name,Order,Variable Name,Label,Type,Codelist,Value list,Format,Role,Notes,Core
Special-Purpose,CO,1,STUDYID,Study Identifier,Char,,,,Identifier,Unique identifier for a study.,Req
Special-Purpose,CO,2,DOMAIN,Domain Abbreviation,Char,,CO,,Identifier,Two-character abbreviation for the domain.,Req
Special-Purpose,CO,3,RDOMAIN,Related Domain Abbreviation,Char,,,,Record Qualifier,Two-character abbreviation for the domain of the parent record(s). Null for comments collected on a general comments or additional information CRF page.,Perm
Special-Purpose,CO,4,USUBJID,Unique Subject Identifier,Char,,,,Identifier,Identifier used to uniquely identify a subject across all studies for all applications or submissions involving the product.,Req
Special-Purpose,CO,5,COSEQ,Sequence Number,Num,,,,Identifier,Sequence Number given to ensure uniqueness of subject records within a domain. May be any valid number.,Req
Special-Purpose,CO,6,IDVAR,Identifying Variable,Char,,,,Record Qualifier,Identifying variable in the parent dataset that identifies the record(s) to which the comment applies. Examples AESEQ or CMGRPID. Used only when individual comments are related to domain records. Null for comments collected on separate CRFs.,Perm
Special-Purpose,CO,7,IDVARVAL,Identifying Variable Value,Char,,,,Record Qualifier,Value of identifying variable of the parent record(s). Used only when individual comments are related to domain records. Null for comments collected on separate CRFs.,Perm
Special-Purpose,CO,8,COREF,Comment Reference,Char,,,,Record Qualifier,"Sponsor-defined reference associated with the comment. May be the CRF page number (e.g. 650), or a module name (e.g. DEMOG), or a combination of information that identifies the reference (e.g. 650-VITALS-VISIT 2).",Perm
Special-Purpose,CO,9,COVAL,Comment,Char,,,,Topic,The text of the comment. Text over 200 characters can be added to additional columns COVAL1-COVALn. See Assumption 3.,Req
Special-Purpose,CO,10,COEVAL,Evaluator,Char,,,,Record Qualifier,"Used to describe the originator of the comment. Examples: CENTRAL, REVIEWER, ADJUDICATION COMMITTEE, PRINCIPAL INVESTIGATOR.",Perm
Special-Purpose,CO,11,CODTC,Date/Time of Comment,Char,,,ISO 8601,Timing,Date/time of comment on dedicated comment form. Should be null if this is a child record of another domain or if comment date was not collected.,Perm
Special-Purpose,DM,1,STUDYID,Study Identifier,Char,,,,Identifier,Unique identifier for a study.,Req
Special-Purpose,DM,2,DOMAIN,Domain Abbreviation,Char,,DM,,Identifier,Two-character abbreviation for the domain.,Req
Special-Purpose,DM,3,USUBJID,Unique Subject Identifier,Char,,,,Identifier,"Identifier used to uniquely identify a subject across all studies for all applications or submissions involving the product. This must be a unique number, and could be a compound identifier formed by concatenating STUDYID-SITEID-SUBJID.",Req
Special-Purpose,DM,4,SUBJID,Subject Identifier for the Study,Char,,,,Topic,"Subject identifier, which must be unique within the study. Often the ID of the subject as recorded on a CRF.",Req
Special-Purpose,DM,5,RFSTDTC,Subject Reference Start Date/Time,Char,,,ISO 8601,Record Qualifier,"Reference Start Date/time for the subject in ISO 8601 character format. Usually equivalent to date/time when subject was first exposed to study treatment. Required for all randomized subjects; will be null for all subjects who did not meet the milestone the date requires, such as screen failures or unassigned subjects.",Exp
Special-Purpose,DM,6,RFENDTC,Subject Reference End Date/Time,Char,,,ISO 8601,Record Qualifier,"Reference End Date/time for the subject in ISO 8601 character format. Usually equivalent to the date/time when subject was determined to have ended the trial, and often equivalent to date/time of last exposure to study treatment. Required for all randomized subjects; null for screen failures or unassigned subjects.",Exp
Special-Purpose,DM,7,RFXSTDTC,Date/Time of First Study Treatment,Char,,,ISO 8601,Record Qualifier,"First date of exposure to any protocol-specified treatment or therapy, equal to the earliest value of EXSTDTC.",Exp
Special-Purpose,DM,8,RFXENDTC,Date/Time of Last Study Treatment,Char,,,ISO 8601,Record Qualifier,"Last date of exposure to any protocol-specified treatment or therapy, equal to the latest value of EXENDTC (or the latest value of EXSTDTC if EXENDTC was not collected or is missing).",Exp
Special-Purpose,DM,9,RFICDTC,Date/Time of Informed Consent,Char,,,ISO 8601,Record Qualifier,"Date/time of informed consent in ISO 8601 character format. This will be the same as the date of informed consent in the Disposition domain, if that protocol milestone is documented. Would be null only in studies not collecting the date of informed consent.",Exp
Special-Purpose,DM,10,RFPENDTC,Date/Time of End of Participation,Char,,,ISO 8601,Record Qualifier,"Date/time when subject ended participation or follow-up in a trial, as defined in the protocol, in ISO 8601 character format. Should correspond to the last known date of contact. Examples include completion date, withdrawal date, last follow-up, date recorded for lost to follow up, or death date.",Exp
Special-Purpose,DM,11,DTHDTC,Date/Time of Death,Char,,,ISO 8601,Record Qualifier,"Date/time of death for any subject who died, in ISO 8601 format. Should represent the date/time that is captured in the clinical-trial database.",Exp
Special-Purpose,DM,12,DTHFL,Subject Death Flag,Char,C66742,,,Record Qualifier,Indicates the subject died. Should be Y or null. Should be populated even when the death date is unknown.,Exp
Special-Purpose,DM,13,SITEID,Study Site Identifier,Char,,,,Record Qualifier,Unique identifier for a site within a study.,Req
Special-Purpose,DM,14,INVID,Investigator Identifier,Char,,,,Record Qualifier,An identifier to describe the Investigator for the study. May be used in addition to SITEID. Not needed if SITEID is equivalent to INVID.,Perm
Special-Purpose,DM,15,INVNAM,Investigator Name,Char,,,,Synonym Qualifier,Name of the investigator for a site.,Perm
Special-Purpose,DM,16,BRTHDTC,Date/Time of Birth,Char,,,ISO 8601,Record Qualifier,Date/time of birth of the subject.,Perm
Special-Purpose,DM,17,AGE,Age,Num,,,,Record Qualifier,"Age expressed in AGEU. May be derived from RFSTDTC and BRTHDTC, but BRTHDTC may not be available in all cases (due to subject privacy concerns).",Exp
Special-Purpose,DM,18,AGEU,Age Units,Char,C66781,,,Variable Qualifier,Units associated with AGE.,Exp
Special-Purpose,DM,19,SEX,Sex,Char,C66731,,,Record Qualifier,Sex of the subject.,Req
Special-Purpose,DM,20,RACE,Race,Char,C74457,,,Record Qualifier,"Race of the subject. Sponsors should refer to ""Collection of Race and Ethnicity Data in Clinical Trials"" (FDA, September 2005) for guidance regarding the collection of race (http://www.fda.gov/RegulatoryInformation/Guidances/ucm126340.htm) See Assumption below regarding RACE.",Exp
Special-Purpose,DM,21,ETHNIC,Ethnicity,Char,C66790,,,Record Qualifier,"The ethnicity of the subject. Sponsors should refer to ""Collection of Race and Ethnicity Data in Clinical Trials"" (FDA, September 2005) for guidance regarding the collection of ethnicity (http://www.fda.gov/RegulatoryInformation/Guidances/ucm126340.htm).",Perm
Special-Purpose,DM,22,ARMCD,Planned Arm Code,Char,,,,Record Qualifier,"ARMCD is limited to 20 characters and does not have special character restrictions. The maximum length of ARMCD is longer than for other ""short"" variables to accommodate the kind of values that are likely to be needed for crossover trials. For example, if ARMCD values for a seven-period crossover were constructed using two-character abbreviations for each treatment and separating hyphens, the length of ARMCD values would be 20.",Req
Special-Purpose,DM,23,ARM,Description of Planned Arm,Char,,,,Synonym Qualifier,Name of the Arm to which the subject was assigned.,Req
Special-Purpose,DM,24,ACTARMCD,Actual Arm Code,Char,,,,Record Qualifier,"Code of actual Arm. When an Arm is not planned (not in Trial Arms), ACTARMCD will be UNPLAN. Randomized subjects who were not treated will be given a value of NOTTRT. Values should be ""SCRNFAIL"" for screen failures and ""NOTASSGN"" for subjects not assigned to treatment. Restricted to values in Trial Arms in all other cases. ACTARMCD is limited to 20 characters and does not have special character restrictions. The maximum length of ACTARMCD is longer than for other short variables to accommodate the kind of values that are likely to be needed for crossover trials.",Req
Special-Purpose,DM,25,ACTARM,Description of Actual Arm,Char,,,,Synonym Qualifier,"Description of actual Arm. When an Arm is not planned (not in Trial Arms), ACTARM will be ""Unplanned Treatment"". Randomized subjects who were not treated will be given a value of ""Not Treated"". Values should be ""Screen Failure"" for screen failures and ""Not Assigned"" for subjects not assigned to treatment. Restricted to values in Trial Arms in all other cases.",Req
Special-Purpose,DM,26,COUNTRY,Country,Char,,,ISO 3166-1 Alpha-3,Record Qualifier,Country of the investigational site in which the subject participated in the trial.,Req
Special-Purpose,DM,27,DMDTC,Date/Time of Collection,Char,,,ISO 8601,Timing,Date/time of demographic data collection.,Perm
Special-Purpose,DM,28,DMDY,Study Day of Collection,Num,,,,Timing,Study day of collection measured as integer days.,Perm
Special-Purpose,SE,1,STUDYID,Study Identifier,Char,,,,Identifier,Unique identifier for a study.,Req
Special-Purpose,SE,2,DOMAIN,Domain Abbreviation,Char,,SE,,Identifier,Two-character abbreviation for the domain.,Req
Special-Purpose,SE,3,USUBJID,Unique Subject Identifier,Char,,,,Identifier,Identifier used to uniquely identify a subject across all studies for all applications or submissions involving the product.,Req
Special-Purpose,SE,4,SESEQ,Sequence Number,Num,,,,Identifier,Sequence Number given to ensure uniqueness of subject records within a domain. Should be assigned to be consistent chronological order.,Req
Special-Purpose,SE,5,ETCD,Element Code,Char,,,,Topic,"1. ETCD (the companion to ELEMENT) is limited to 8 characters and does not have special character restrictions. These values should be short for ease of use in programming, but it is not expected that ETCD will need to serve as a variable name. 2. If an encountered Element differs from the planned Element to the point that it is considered a new Element, then use ""UNPLAN"" as the value for ETCD to represent this Element.",Req
Special-Purpose,SE,6,ELEMENT,Description of Element,Char,,,,Synonym Qualifier,"The name of the Element. If ETCD has a value of ""UNPLAN"" then ELEMENT should be Null.",Perm
Special-Purpose,SE,7,SESTDTC,Start Date/Time of Element,Char,,,ISO 8601,Timing,Start date/time for an Element for each subject.,Req
Special-Purpose,SE,8,SEENDTC,End Date/Time of Element,Char,,,ISO 8601,Timing,End date/time for an Element for each subject.,Exp
Special-Purpose,SE,9,TAETORD,Planned Order of Element within Arm,Num,,,,Timing,Number that gives the planned order of the Element within the subject's assigned ARM.,Perm
Special-Purpose,SE,10,EPOCH,Epoch,Char,C99079,,,Timing,Epoch associated with the Element in the planned sequence of Elements for the ARM to which the subject was assigned,Perm
Special-Purpose,SE,11,SEUPDES,Description of Unplanned Element,Char,,,,Synonym Qualifier,"Description of what happened to the subject during this unplanned Element. Used only if ETCD has the value of ""UNPLAN"".",Perm
Special-Purpose,SV,1,STUDYID,Study Identifier,Char,,,,Identifier,Unique identifier for a study.,Req
Special-Purpose,SV,2,DOMAIN,Domain Abbreviation,Char,,SV,,Identifier,Two-character abbreviation for the domain.,Req
Special-Purpose,SV,3,USUBJID,Unique Subject Identifier,Char,,,,Identifier,Identifier used to uniquely identify a subject across all studies for all applications or submissions involving the product.,Req
Special-Purpose,SV,4,VISITNUM,Visit Number,Num,,,,Topic,"1. Clinical encounter number. (Decimal numbering may be useful for inserting unplanned visits.) 2. Numeric version of VISIT, used for sorting.",Req
Special-Purpose,SV,5,VISIT,Visit Name,Char,,,,Synonym Qualifier,1. Protocol-defined description of clinical encounter. 2. May be used in addition to VISITNUM and/or VISITDY as a text description of the clinical encounter.,Perm
Special-Purpose,SV,6,VISITDY,Planned Study Day of Visit,Num,,,,Timing,Planned study day of the start of the visit based upon RFSTDTC in Demographics.,Perm
Special-Purpose,SV,7,SVSTDTC,Start Date/Time of Visit,Char,,,ISO 8601,Timing,Start date/time for a Visit.,Exp
Special-Purpose,SV,8,SVENDTC,End Date/Time of Visit,Char,,,ISO 8601,Timing,End date/time of a Visit.,Exp
Special-Purpose,SV,9,SVSTDY,Study Day of Start of Visit,Num,,,,Timing,Study day of start of visit relative to the sponsor-defined RFSTDTC.,Perm
Special-Purpose,SV,10,SVENDY,Study Day of End of Visit,Num,,,,Timing,Study day of end of visit relative to the sponsor-defined RFSTDTC.,Perm
Special-Purpose,SV,11,SVUPDES,Description of Unplanned Visit,Char,,,,Synonym Qualifier,Description of what happened to the subject during an unplanned visit.,Perm
Interventions,CM,1,STUDYID,Study Identifier,Char,,,,Identifier,Unique identifier for a study.,Req
Interventions,CM,2,DOMAIN,Domain Abbreviation,Char,,CM,,Identifier,Two-character abbreviation for the domain.,Req
Interventions,CM,3,USUBJID,Unique Subject Identifier,Char,,,,Identifier,Identifier used to uniquely identify a subject across all studies for all applications or submissions involving the product.,Req
Interventions,CM,4,CMSEQ,Sequence Number,Num,,,,Identifier,Sequence Number given to ensure uniqueness of subject records within a domain. May be any valid number.,Req
Interventions,CM,5,CMGRPID,Group ID,Char,,,,Identifier,Used to tie together a block of related records in a single domain for a subject.,Perm
Interventions,CM,6,CMSPID,Sponsor-Defined Identifier,Char,,,,Identifier,Sponsor-defined reference number. Examples: a number pre-printed on the CRF as an explicit line identifier or record identifier defined in the sponsor's operational database. Example: line number on a concomitant medication page.,Perm
Interventions,CM,7,CMTRT,"Reported Name of Drug, Med, or Therapy",Char,,,,Topic,Verbatim medication name that is either pre-printed or collected on a CRF.,Req
Interventions,CM,8,CMMODIFY,Modified Reported Name,Char,,,,Synonym Qualifier,"If CMTRT is modified to facilitate coding, then CMMODIFY will contain the modified text.",Perm
Interventions,CM,9,CMDECOD,Standardized Medication Name,Char,,,,Synonym Qualifier,Standardized or dictionary-derived text description of CMTRT or CMMODIFY. Equivalent to the generic medication name in WHO Drug. The sponsor is expected to provide the dictionary name and version used to map the terms utilizing the define.xml external codelist attributes. If an intervention term does not have a decode value in the dictionary then CMDECOD will be left blank.,Perm
Interventions,CM,10,CMCAT,Category for Medication,Char,,,,Grouping Qualifier,"Used to define a category of medications/treatments. Examples: PRIOR, CONCOMITANT, ANTI-CANCER MEDICATION, or GENERAL CONMED.",Perm
Interventions,CM,11,CMSCAT,Subcategory for Medication,Char,,,,Grouping Qualifier,"A further categorization of medications/ treatment. Examples: CHEMOTHERAPY, HORMONAL THERAPY, ALTERNATIVE THERAPY.",Perm
Interventions,CM,12,CMPRESP,CM Pre-Specified,Char,C66742,,,Variable Qualifier,Used to indicate whether (Y/null) information about the use of a specific medication was solicited on the CRF.,Perm
Interventions,CM,13,CMOCCUR,CM Occurrence,Char,C66742,,,Record Qualifier,"When the use of specific medications is solicited, CMOCCUR is used to indicate whether or not (Y/N) use of the medication occurred. Values are null for medications not specifically solicited.",Perm
Interventions,CM,14,CMSTAT,Completion Status,Char,C66789,,,Record Qualifier,Used to indicate that a question about a pre-specified medication was not answered. Should be null or have a value of NOT DONE.,Perm
Interventions,CM,15,CMREASND,Reason Medication Not Collected,Char,,,,Record Qualifier,Describes the reason concomitant medication was not collected. Used in conjunction with CMSTAT when value is NOT DONE.,Perm
Interventions,CM,16,CMINDC,Indication,Char,,,,Record Qualifier,"Denotes why a medication was taken or administered. Examples: NAUSEA, HYPERTENSION.",Perm
Interventions,CM,17,CMCLAS,Medication Class,Char,,,,Variable Qualifier,"Drug class. May be obtained from coding. When coding to a single class, populate with class value. If using a dictionary and coding to multiple classes, then follow Section 4: 4.1.2.8.3, Multiple Values For A Non-Result Qualifier Variable or omit CMCLAS.",Perm
Interventions,CM,18,CMCLASCD,Medication Class Code,Char,,,,Variable Qualifier,"Class code corresponding to CMCLAS. Drug class. May be obtained from coding. When coding to a single class, populate with class code. If using a dictionary and coding to multiple classes, then follow Section 4: 4.1.2.8.3, Multiple Values For A Non-Result Qualifier Variable or omit CMCLASCD.",Perm
Interventions,CM,19,CMDOSE,Dose per Administration,Num,,,,Record Qualifier,Amount of CMTRT taken. Not populated when CMDOSTXT is populated.,Perm
Interventions,CM,20,CMDOSTXT,Dose Description,Char,,,,Record Qualifier,"Dosing amounts or a range of dosing information collected in text form. Units may be stored in CMDOSU. Example: 200-400, 15-20. Not populated when CMDOSE is populated.",Perm
Interventions,CM,21,CMDOSU,Dose Units,Char,C71620,,,Variable Qualifier,"Units for CMDOSE, CMDOSTOT, and CMDOSTXT. Examples: ng, mg, or mg/kg.",Perm
Interventions,CM,22,CMDOSFRM,Dose Form,Char,C66726,,,Variable Qualifier,"Dose form for CMTRT. Examples: TABLET, LOTION.",Perm
Interventions,CM,23,CMDOSFRQ,Dosing Frequency per Interval,Char,C71113,,,Variable Qualifier,"Usually expressed as the number of repeated administrations of CMDOSE within a specific time period. Examples: BID (twice daily), Q12H (every 12 hours).",Perm
Interventions,CM,24,CMDOSTOT,Total Daily Dose,Num,,,,Record Qualifier,Total daily dose of CMTRT using the units in CMDOSU. Used when dosing is collected as Total Daily Dose. Total dose over a period other than day could be recorded in a separate Supplemental Qualifier variable.,Perm
Interventions,CM,25,CMDOSRGM,Intended Dose Regimen,Char,,,,Variable Qualifier,"Text description of the (intended) schedule or regimen for the Intervention. Examples: TWO WEEKS ON, TWO WEEKS OFF.",Perm
Interventions,CM,26,CMROUTE,Route of Administration,Char,C66729,,,Variable Qualifier,"Route of administration for CMTRT. Examples: ORAL, INTRAVENOUS.",Perm
Interventions,CM,27,CMSTDTC,Start Date/Time of Medication,Char,,,ISO 8601,Timing,,Perm
Interventions,CM,28,CMENDTC,End Date/Time of Medication,Char,,,ISO 8601,Timing,,Perm
Interventions,CM,29,CMSTDY,Study Day of Start of Medication,Num,,,,Timing,Study day of start of medication relative to the sponsor-defined RFSTDTC.,Perm
Interventions,CM,30,CMENDY,Study Day of End of Medication,Num,,,,Timing,Study day of end of medication relative to the sponsor-defined RFSTDTC.,Perm
Interventions,CM,31,CMDUR,Duration of Medication,Char,,,ISO 8601,Timing,Collected duration for a treatment episode. Used only if collected on the CRF and not derived from start and end date/times.,Perm
Interventions,CM,32,CMSTRF,Start Relative to Reference Period,Char,C66728,,,Timing,"Describes the start of the medication relative to sponsor-defined reference period. The sponsor-defined reference period is a continuous period of time defined by a discrete starting point and a discrete ending point (represented by RFSTDTC and RFENDTC in Demographics). If information such as ""PRIOR"", ONGOING or ""CONTINUING"" was collected, this information may be translated into CMSTRF.",Perm
Interventions,CM,33,CMENRF,End Relative to Reference Period,Char,C66728,,,Timing,"Describes the end of the medication relative to the sponsor-defined reference period. The sponsor-defined reference period is a continuous period of time defined by a discrete starting point and a discrete ending point (represented by RFSTDTC and RFENDTC in Demographics). If information such as ""PRIOR"", ""ONGOING, or ""CONTINUING"" was collected, this information may be translated into CMENRF.",Perm
Interventions,CM,34,CMSTRTPT,Start Relative to Reference Time Point,Char,C66728,,,Timing,Identifies the start of the medication as being before or after the reference time point defined by variable CMSTTPT.,Perm
Interventions,CM,35,CMSTTPT,Start Reference Time Point,Char,,,,Timing,"Description or date/time in ISO 8601 character format of the reference point referred to by CMSTRTPT. Examples: ""2003-12-15"" or ""VISIT 1"".",Perm
Interventions,CM,36,CMENRTPT,End Relative to Reference Time Point,Char,C66728,,,Timing,Identifies the end of the medication as being before or after the reference time point defined by variable CMENTPT.,Perm
Interventions,CM,37,CMENTPT,End Reference Time Point,Char,,,,Timing,"Description or date/time in ISO 8601 character format of the reference point referred to by CMENRTPT. Examples: ""2003-12-25"" or ""VISIT 2"".",Perm
Interventions,EX,1,STUDYID,Study Identifier,Char,,,,Identifier,Unique identifier for a study.,Req
Interventions,EX,2,DOMAIN,Domain Abbreviation,Char,,EX,,Identifier,Two-character abbreviation for the domain.,Req
Interventions,EX,3,USUBJID,Unique Subject Identifier,Char,,,,Identifier,Identifier used to uniquely identify a subject across all studies for all applications or submissions involving the product.,Req
Interventions,EX,4,EXSEQ,Sequence Number,Num,,,,Identifier,Sequence Number given to ensure uniqueness of subject records within a domain. May be any valid number.,Req
Interventions,EX,5,EXGRPID,Group ID,Char,,,,Identifier,Used to tie together a block of related records in a single domain for a subject.,Perm
Interventions,EX,6,EXREFID,Reference ID,Char,,,,Identifier,"Internal or external identifier (e.g., kit number, bottle label, vial identifier).",Perm
Interventions,EX,7,EXSPID,Sponsor-Defined Identifier,Char,,,,Identifier,Sponsor-defined reference number. Perhaps pre-printed on the CRF as an explicit line identifier or defined in the sponsor's operational database. Example: Line number on a CRF Page.,Perm
Interventions,EX,8,EXLNKID,Link ID,Char,,,,Identifier,Identifier used to link related records across domains.,Perm
Interventions,EX,9,EXLNKGRP,Link Group ID,Char,,,,Identifier,"Identifier used to link related, grouped records across domains.",Perm
Interventions,EX,10,EXTRT,Name of Treatment,Char,,,,Topic,Name of the protocol-specified study treatment given during the dosing period for the observation.,Req
Interventions,EX,11,EXCAT,Category of Treatment,Char,,,,Grouping Qualifier,Used to define a category of EXTRT values.,Perm
Interventions,EX,12,EXSCAT,Subcategory of Treatment,Char,,,,Grouping Qualifier,A further categorization of EXCAT values.,Perm
Interventions,EX,13,EXDOSE,Dose,Num,,,,Record Qualifier,Amount of EXTRT when numeric. Not populated when EXDOSTXT is populated.,Exp
Interventions,EX,14,EXDOSTXT,Dose Description,Char,,,,Record Qualifier,Amount of EXTRT when non-numeric. Dosing amounts or a range of dosing information collected in text form. Example: 200-400. Not populated when EXDOSE is populated.,Perm
Interventions,EX,15,EXDOSU,Dose Units,Char,C71620,,,Variable Qualifier,"Units for EXDOSE, EXDOSTOT, or EXDOSTXT representing protocol-specified values. Examples: ng, mg, mg/kg, mg/m2.",Exp
Interventions,EX,16,EXDOSFRM,Dose Form,Char,C66726,,,Variable Qualifier,"Dose form for EXTRT. Examples: TABLET, LOTION.",Exp
Interventions,EX,17,EXDOSFRQ,Dosing Frequency per Interval,Char,C71113,,,Variable Qualifier,"Usually expressed as the number of repeated administrations of EXDOSE within a specific time period. Examples: Q2H, QD, BID.",Perm
Interventions,EX,18,EXDOSRGM,Intended Dose Regimen,Char,,,,Variable Qualifier,"Text description of the intended schedule or regimen for the Intervention. Example: TWO WEEKS ON, TWO WEEKS OFF.",Perm
Interventions,EX,19,EXROUTE,Route of Administration,Char,C66729,,,Variable Qualifier,"Route of administration for the intervention. Examples: ORAL, INTRAVENOUS.",Perm
Interventions,EX,20,EXLOT,Lot Number,Char,,,,Record Qualifier,Lot Number of the intervention product.,Perm
Interventions,EX,21,EXLOC,Location of Dose Administration,Char,C74456,,,Record Qualifier,"Specifies location of administration. Examples: ARM, LIP.",Perm
Interventions,EX,22,EXLAT,Laterality,Char,C99073,,,Variable Qualifier,"Qualifier for anatomical location further detailing laterality of the intervention administration. Examples: LEFT, RIGHT.",Perm
Interventions,EX,23,EXDIR,Directionality,Char,C99074,,,Variable Qualifier,"Qualifier for anatomical location further detailing directionality. Examples: ANTERIOR, LOWER, PROXIMAL, UPPER.",Perm
Interventions,EX,24,EXFAST,Fasting Status,Char,C66742,,,Record Qualifier,"Indicator used to identify fasting status. Examples: Y, N.",Perm
Interventions,EX,25,EXADJ,Reason for Dose Adjustment,Char,,,,Record Qualifier,Describes reason or explanation of why a dose is adjusted.,Perm
Interventions,EX,26,EPOCH,Epoch,Char,C99079,,,Timing,"Trial Epoch of the Exposure record. Examples: RUN-IN, TREATMENT.",Perm
Interventions,EX,27,EXSTDTC,Start Date/Time of Treatment,Char,,,ISO 8601,Timing,The date/time when administration of the treatment indicated by EXTRT and EXDOSE began.,Exp
Interventions,EX,28,EXENDTC,End Date/Time of Treatment,Char,,,ISO 8601,Timing,"The date/time when administration of the treatment indicated by EXTRT and EXDOSE ended. For administrations considered given at a point in time (e.g., oral tablet, pre-filled syringe injection), where only an administration date/time is collected, EXSTDTC should be copied to EXENDTC as the standard representation.",Exp
Interventions,EX,29,EXSTDY,Study Day of Start of Treatment,Num,,,,Timing,Study day of EXSTDTC relative to DM.RFSTDTC.,Perm
Interventions,EX,30,EXENDY,Study Day of End of Treatment,Num,,,,Timing,Study day of EXENDTC relative to DM.RFSTDTC.,Perm
Interventions,EX,31,EXDUR,Duration of Treatment,Char,,,ISO 8601,Timing,Collected duration of administration represented in ISO 8601 duration format. Used only if collected on the CRF and not derived from start and end date/times.,Perm
Interventions,EX,32,EXTPT,Planned Time Point Name,Char,,,,Timing,"1. Text Description of time when administration should occur. 2. This may be represented as an elapsed time relative to a fixed reference point, such as time of last dose. See EXTPTNUM and EXTPTREF.",Perm
Interventions,EX,33,EXTPTNUM,Planned Time Point Number,Num,,,,Timing,Numerical version of EXTPT to aid in sorting.,Perm
Interventions,EX,34,EXELTM,Planned Elapsed Time from Time Point Ref,Char,,,ISO 8601,Timing,Planned elapsed time (in ISO 8601 format) relative to the planned fixed reference (EXTPTREF). This variable is useful where there are repetitive measures. Not a clock time. Represented in ISO 8601 duration format.,Perm
Interventions,EX,35,EXTPTREF,Time Point Reference,Char,,,,Timing,"Name of the fixed reference point referred to by EXELTM, EXTPTNUM, and EXTPT. Examples: PREVIOUS DOSE, PREVIOUS MEAL.",Perm
Interventions,EX,36,EXRFTDTC,Date/Time of Reference Time Point,Char,,,ISO 8601,Timing,Date/time for a fixed reference time point defined by EXTPTREF in ISO 8601 character format.,Perm
Interventions,EC,1,STUDYID,Study Identifier,Char,,,,Identifier,Unique identifier for a study.,Req
Interventions,EC,2,DOMAIN,Domain Abbreviation,Char,,EC,,Identifier,Two-character abbreviation for the domain.,Req
Interventions,EC,3,USUBJID,Unique Subject Identifier,Char,,,,Identifier,Identifier used to uniquely identify a subject across all studies for all applications or submissions involving the product.,Req
Interventions,EC,4,ECSEQ,Sequence Number,Num,,,,Identifier,Sequence Number given to ensure uniqueness of subject records within a domain. May be any valid number.,Req
Interventions,EC,5,ECGRPID,Group ID,Char,,,,Identifier,Used to tie together a block of related records in a single domain for a subject.,Perm
Interventions,EC,6,ECREFID,Reference ID,Char,,,,Identifier,"Internal or external identifier (e.g., kit number, bottle label, vial identifier).",Perm
Interventions,EC,7,ECSPID,Sponsor-Defined Identifier,Char,,,,Identifier,Sponsor-defined reference number. Perhaps pre-printed on the CRF as an explicit line identifier or defined in the sponsor's operational database. Example: Line number on a CRF Page.,Perm
Interventions,EC,8,ECLNKID,Link ID,Char,,,,Identifier,Identifier used to link related records across domains.,Perm
Interventions,EC,9,ECLNKGRP,Link Group ID,Char,,,,Identifier,"Identifier used to link related, grouped records across domains.",Perm
Interventions,EC,10,ECTRT,Name of Treatment,Char,,,,Topic,Name of the intervention treatment known to the subject and/or administrator.,Req
Interventions,EC,11,ECMOOD,Mood,Char,,,,Record Qualifier,"Mode or condition of the record specifying whether the intervention (activity) is intended to happen or has happened.  Values align with BRIDG pillars (e.g., scheduled context, performed context) and HL7 activity moods (e.g., intent, event).  Examples: SCHEDULED, PERFORMED. CDISC Controlled Terminology request for MOOD codelist with values of SCHEDULED and PERFORMED has been submitted.",Perm
Interventions,EC,12,ECCAT,Category of Treatment,Char,,,,Grouping Qualifier,Used to define a category of related ECTRT values.,Perm
Interventions,EC,13,ECSCAT,Subcategory of Treatment,Char,,,,Grouping Qualifier,A further categorization of ECCAT values.,Perm
Interventions,EC,14,ECPRESP,Pre-Specified,Char,C66742,,,Record Qualifier,"Used when a specific intervention is pre-specified. Values should be ""Y"" or null.",Perm
Interventions,EC,15,ECOCCUR,Occurrence,Char,C66742,,,Record Qualifier,"Used to indicate whether a treatment occurred when information about the occurrence is solicited. ECOCCUR = 'N' when a treatment was not taken, not given, or missed.",Perm
Interventions,EC,16,ECDOSE,Dose,Num,,,,Record Qualifier,Amount of ECTRT when numeric. Not populated when ECDOSTXT is populated.,Exp
Interventions,EC,17,ECDOSTXT,Dose Description,Char,,,,Record Qualifier,Amount of ECTRT when non-numeric. Dosing amounts or a range of dosing information collected in text form. Example: 200-400. Not populated when ECDOSE is populated.,Perm
Interventions,EC,18,ECDOSU,Dose Units,Char,C71620,,,Variable Qualifier,"Units for ECDOSE, ECDOSTOT, or ECDOSTXT.",Exp
Interventions,EC,19,ECDOSFRM,Dose Form,Char,C66726,,,Variable Qualifier,"Dose form for ECTRT. Examples: TABLET, LOTION.",Exp
Interventions,EC,20,ECDOSFRQ,Dosing Frequency per Interval,Char,C71113,,,Variable Qualifier,"Usually expressed as the number of repeated administrations of ECDOSE within a specific time period. Examples: Q2H, QD, BID.",Perm
Interventions,EC,21,ECDOSTOT,Total Daily Dose,Char,,,,Record Qualifier,Total daily dose of ECTRT using the units in ECDOSU. Used when dosing is collected as Total Daily Dose.,Perm
Interventions,EC,22,ECDOSRGM,Intended Dose Regimen,Char,,,,Variable Qualifier,"Text description of the intended schedule or regimen for the Intervention. Example: TWO WEEKS ON, TWO WEEKS OFF.",Perm
Interventions,EC,23,ECROUTE,Route of Administration,Char,C66729,,,Variable Qualifier,"Route of administration for the intervention. Examples: ORAL, INTRAVENOUS.",Perm
Interventions,EC,24,ECLOT,Lot Number,Char,,,,Record Qualifier,Lot Number of the ECTRT product.,Perm
Interventions,EC,25,ECLOC,Location of Dose Administration,Char,C74456,,,Record Qualifier,"Specifies location of administration. Example: ARM, LIP.",Perm
Interventions,EC,26,ECLAT,Laterality,Char,C99073,,,Record Qualifier,"Qualifier for anatomical location further detailing laterality of the intervention administration. Examples: LEFT, RIGHT.",Perm
Interventions,EC,27,ECDIR,Directionality,Char,C99074,,,Variable Qualifier,"Qualifier for anatomical location further detailing directionality. Examples: ANTERIOR, LOWER, PROXIMAL, UPPER.",Perm
Interventions,EC,28,ECPORTOT,Portion or Totality,Char,C99075,,,Variable Qualifier,"Qualifier for anatomical location further detailing distribution, which means arrangement of, apportioning of. Examples: ENTIRE, SINGLE, SEGMENT.",Perm
Interventions,EC,29,ECFAST,Fasting Status,Char,C66742,,,Record Qualifier,"Indicator used to identify fasting status. Examples: Y, N.",Perm
Interventions,EC,30,ECPSTRG,Pharmaceutical Strength,Num,,,,Variable Qualifier,"Amount of an active ingredient expressed quantitatively per dosage unit, per unit of volume, or per unit of weight, according to the pharmaceutical dose form.",Perm
Interventions,EC,31,ECPSTRGU,Pharmaceutical Strength Units,Char,,,,Variable Qualifier,"Unit for ECPSTRG. Examples: mg/TABLET, mg/mL.",Perm
Interventions,EC,32,ECADJ,Reason for Dose Adjustment,Char,,,,Record Qualifier,Describes reason or explanation of why a dose is adjusted.,Perm
Interventions,EC,33,EPOCH,Epoch,Char,C99079,,,Timing,"Trial Epoch of the exposure as collected record. Examples: RUN-IN, TREATMENT.",Perm
Interventions,EC,34,ECSTDTC,Start Date/Time of Treatment,Char,,,ISO 8601,Timing,The date/time when administration of the treatment indicated by ECTRT and ECDOSE began.,Exp
Interventions,EC,35,ECENDTC,End Date/Time of Treatment,Char,,,ISO 8601,Timing,"The date/time when administration of the treatment indicated by ECTRT and ECDOSE ended. For administrations considered given at a point in time (e.g., oral tablet, pre-filled syringe injection), where only an administration date/time is collected, ECSTDTC should be copied to ECENDTC as the standard representation.",Exp
Interventions,EC,36,ECSTDY,Study Day of Start of Treatment,Num,,,,Timing,Study day of ECSTDTC relative to the sponsor-defined DM.RFSTDTC.,Perm
Interventions,EC,37,ECENDY,Study Day of End of Treatment,Num,,,,Timing,Study day of ECENDTC relative to the sponsor-defined DM.RFSTDTC.,Perm
Interventions,EC,38,ECDUR,Duration of Treatment,Char,,,ISO 8601,Timing,Collected duration of administration represented in ISO 8601 duration format. Used only if collected on the CRF and not derived from start and end date/times.,Perm
Interventions,EC,39,ECTPT,Planned Time Point Name,Char,,,,Timing,"Text Description of time when administration should occur. This may be represented as an elapsed time relative to a fixed reference point, such as time of last dose. See ECTPTNUM and ECTPTREF.",Perm
Interventions,EC,40,ECTPTNUM,Planned Time Point Number,Num,,,,Timing,Numerical version of ECTPT to aid in sorting.,Perm
Interventions,EC,41,ECELTM,Planned Elapsed Time from Time Point Ref,Char,,,ISO 8601,Timing,Planned elapsed time (in ISO 8601 format) relative to the planned fixed reference (ECTPTREF). This variable is useful where there are repetitive measures. Not a clock time. Represented in ISO 8601 duration format.,Perm
Interventions,EC,42,ECTPTREF,Time Point Reference,Char,,,,Timing,"Name of the fixed reference point referred to by ECELTM, ECTPTNUM, and ECTPT. Examples: PREVIOUS DOSE, PREVIOUS MEAL.",Perm
Interventions,EC,43,ECRFTDTC,Date/Time of Reference Time Point,Char,,,ISO 8601,Timing,Date/time for a fixed reference time point defined by ECTPTREF in ISO 8601 character format.,Perm
Interventions,PR,1,STUDYID,Study Identifier,Char,,,,Identifier,Unique identifier for a study.,Req
Interventions,PR,2,DOMAIN,Domain Abbreviation,Char,,PR,,Identifier,Two-character abbreviation for the domain.,Req
Interventions,PR,3,USUBJID,Unique Subject Identifier,Char,,,,Identifier,Identifier used to uniquely identify a subject across all studies for all applications or submissions involving the product.,Req
Interventions,PR,4,PRSEQ,Sequence Number,Num,,,,Identifier,Sequence number to ensure uniqueness of records within a dataset for a subject. Should be assigned to be in a consistent chronological order.,Req
Interventions,PR,5,PRGRPID,Group ID,Char,,,,Identifier,Used to link together a block of related records within a subject in a domain.,Perm
Interventions,PR,6,PRSPID,Sponsor-Defined Identifier,Char,,,,Identifier,Sponsor-defined identifier. Example: pre-printed line identifier on a CRF or record identifier defined in the sponsor's operational database.,Perm
Interventions,PR,7,PRLNKID,Link ID,Char,,,,Identifier,Used to facilitate identification of relationships between records.,Perm
Interventions,PR,8,PRLNKGRP,Link Group ID,Char,,,,Identifier,Used to facilitate identification of relationships between records.,
Interventions,PR,9,PRTRT,Reported Name of Procedure,Char,,,,Topic,"Name of procedure performed, either pre-printed or collected on a CRF.",Req
Interventions,PR,10,PRDECOD,Standardized Procedure Name,Char,,,,Synonym Qualifier,Standardized or dictionary-derived name of PRTRT. The sponsor is expected to provide the dictionary name and version used to map the terms in the define.xml external codelist attributes. If an intervention term does not have a decode value in the dictionary then PRDECOD will be null.,Perm
Interventions,PR,11,PRCAT,Category,Char,,,,Grouping Qualifier,Used to define a category of procedure values.,Perm
Interventions,PR,12,PRSCAT,Subcategory,Char,,,,Grouping Qualifier,Used to define a further categorization of PRCAT values.,Perm
Interventions,PR,13,PRPRESP,Pre-specified,Char,C66742,,,Record Qualifier,"Used when a specific procedure is pre-specified on a CRF. Values should be ""Y"" or null.",Perm
Interventions,PR,14,PROCCUR,Occurrence,Char,C66742,,,Record Qualifier,Used to record whether a pre-specified procedure occurred when information about the occurrence of a specific procedure is solicited.,Perm
Interventions,PR,15,PRINDC,Indication,Char,,,,Record Qualifier,"Denotes the indication for the procedure (e.g., why the procedure was performed).",Perm
Interventions,PR,16,PRDOSE,Dose,Num,,,,Record Qualifier,Amount of PRTRT administered. Not populated when PRDOSTXT is populated.,Perm
Interventions,PR,17,PRDOSTXT,Dose Description,Char,,,,Record Qualifier,"Dosing information collected in text form. Examples: <1, 200-400. Not populated when PRDOSE is populated.",Perm
Interventions,PR,18,PRDOSU,Dose Units,Char,C71620,,,Variable Qualifier,"Units for PRDOSE, PRDOSTOT, or PRDOSTXT.",Perm
Interventions,PR,19,PRDOSFRM,Dose Form,Char,C66726,,,Variable Qualifier,Dose form for PRTRT.,Perm
Interventions,PR,20,PRDOSFRQ,Dosing Frequency per Interval,Char,,,,Variable Qualifier,Usually expressed as the number of doses given per a specific interval.,Perm
Interventions,PR,21,PRDOSRGM,Intended Dose Regimen,Char,,,,Variable Qualifier,Text description of the intended schedule or regimen for the procedure.,Perm
Interventions,PR,22,PRROUTE,Route of Administration,Char,C66729,,,Variable Qualifier,Route of administration for PRTRT.,Perm
Interventions,PR,23,PRLOC,Location of Procedure,Char,C74456,,,Record Qualifier,Anatomical location of a procedure.,Perm
Interventions,PR,24,PRLAT,Laterality,Char,C99073,,,Variable Qualifier,Qualifier for anatomical location or specimen further detailing laterality.,Perm
Interventions,PR,25,PRDIR,Directionality,Char,C99074,,,Variable Qualifier,Qualifier for anatomical location or specimen further detailing directionality.,Perm
Interventions,PR,26,PRPORTOT,Portion or Totality,Char,C99075,,,Variable Qualifier,"Qualifier for anatomical location or specimen further detailing the distribution, which means arrangement of, apportioning of.",Perm
Interventions,PR,27,VISITNUM,Visit Number,Num,,,,Timing,"Clinical encounter number. Numeric version of VISIT, used for sorting.",Perm
Interventions,PR,28,VISIT,Visit Name,Char,,,,Timing,Protocol-defined description of a clinical encounter.,Perm
Interventions,PR,29,VISITDY,Planned Study Day of Visit,Num,,,,Timing,Planned study day of VISIT. Should be an integer.,Perm
Interventions,PR,30,PRSTDTC,Start Date/Time of Procedure,Char,,,ISO 8601,Timing,Start date/time of the procedure represented in ISO 8601 character format.,Exp
Interventions,PR,31,PRENDTC,End Date/Time of Procedure,Char,,,ISO 8601,Timing,End date/time of the procedure represented in ISO 8601 character format.,Perm
Interventions,PR,32,PRSTDY,Study Day of Start of Procedure,Num,,,,Timing,Study day of start of procedure expressed in integer days relative to the sponsor-defined RFSTDTC in Demographics.,Perm
Interventions,PR,33,PRENDY,Study Day of End of Procedure,Num,,,,Timing,Study day of end of procedure expressed in integer days relative to the sponsor-defined RFSTDTC in Demographics.,Perm
Interventions,PR,34,PRDUR,Duration of Procedure,Char,,,ISO 8601,Timing,Collected duration of a procedure represented in ISO 8601 character format. Used only if collected on the CRF and not derived from start and end date/times.,Perm
Interventions,PR,35,PRTPT,Planned Time Point Name,Char,,,,Timing,"Text description of time when a procedure should be performed. This may be represented as an elapsed time relative to a fixed reference point, such as time of last dose. See PRTPTNUM and PRTPTREF.",Perm
Interventions,PR,36,PRTPTNUM,Planned Time Point Number,Num,,,,Timing,Numerical version of planned time point used in sorting.,Perm
Interventions,PR,37,PRELTM,Planned Elapsed Time from Time Point Ref,Char,,,ISO 8601,Timing,"Planned elapsed time in ISO 8601 format relative to a planned fixed reference (PRTPTREF). This variable is useful where there are repetitive measures. Not a clock time or a date/time variable, but an interval, represented as ISO duration.",Perm
Interventions,PR,38,PRTPTREF,Time Point Reference,Char,,,,Timing,"Description of the fixed reference point referred to by PRELTM, PRTPTNUM, and PRTPT.",Perm
Interventions,PR,39,PRRFTDTC,Date/Time of Reference Time Point,Char,,,ISO 8601,Timing,Date/time for a fixed reference time point defined by PRTRTREF in ISO 8601 character format.,Perm
Interventions,PR,40,PRSTRTPT,Start Relative to Reference Time Point,Char,,AFTER; BEFORE; COINCIDENT; U,,Timing,Identifies the start of the observation as being before or after the sponsor-defined reference time point defined by variable PRSTTPT.,Perm
Interventions,PR,41,PRSTTPT,Start Reference Time Point,Char,,,,Timing,"Description or date/time in ISO 8601 character format of the sponsor-defined reference point referred to by PRSTRTPT. Examples: ""2003-12-15"" or ""VISIT 1"".",Perm
Interventions,PR,42,PRENRTPT,End Relative to Reference Time Point,Char,,AFTER; BEFORE; COINCIDENT; ONGOING; U,,Timing,Identifies the end of the observation as being before or after the sponsor-defined reference time point defined by variable PRENTPT.,Perm
Interventions,PR,43,PRENTPT,End Reference Time Point,Char,,,,Timing,"Description or date/time in ISO 8601 character format of the sponsor-defined reference point referred to by PRENRTPT. Examples: ""2003-12-25"" or ""VISIT 2"".",Perm
Interventions,SU,1,STUDYID,Study Identifier,Char,,,,Identifier,Unique identifier for a study.,Req
Interventions,SU,2,DOMAIN,Domain Abbreviation,Char,,SU,,Identifier,Two-character abbreviation for the domain.,Req
Interventions,SU,3,USUBJID,Unique Subject Identifier,Char,,,,Identifier,Identifier used to uniquely identify a subject across all studies for all applications or submissions involving the product.,Req
Interventions,SU,4,SUSEQ,Sequence Number,Num,,,,Identifier,Sequence Number given to ensure uniqueness of subject records within a domain. May be any valid number.,Req
Interventions,SU,5,SUGRPID,Group ID,Char,,,,Identifier,Used to tie together a block of related records in a single domain for a subject.,Perm
Interventions,SU,6,SUSPID,Sponsor-Defined Identifier,Char,,,,Identifier,Sponsor-defined reference number. Perhaps pre-printed on the CRF as an explicit line identifier or defined in the sponsor's operational database. Example: Line number on a Tobacco & Alcohol use CRF page.,Perm
Interventions,SU,7,SUTRT,Reported Name of Substance,Char,,,,Topic,"Substance name. Examples: Cigarettes, Coffee.",Req
Interventions,SU,8,SUMODIFY,Modified Substance Name,Char,,,,Synonym Qualifier,"If SUTRT is modified, then the modified text is placed here.",Perm
Interventions,SU,9,SUDECOD,Standardized Substance Name,Char,,,,Synonym Qualifier,Standardized or dictionary-derived text description of SUTRT or SUMODIFY if the sponsor chooses to code the substance use. The sponsor is expected to provide the dictionary name and version used to map the terms utilizing the define.xml external codelist attributes.,Perm
Interventions,SU,10,SUCAT,Category for Substance Use,Char,,,,Grouping Qualifier,"Used to define a category of related records. Examples: TOBACCO, ALCOHOL, or CAFFEINE.",Perm
Interventions,SU,11,SUSCAT,Subcategory for Substance Use,Char,,,,Grouping Qualifier,"A further categorization of substance use. Examples: CIGARS, CIGARETTES, BEER, WINE",Perm
Interventions,SU,12,SUPRESP,SU Pre-Specified,Char,C66742,,,Variable Qualifier,Used to indicate whether (Y/null) information about the use of a specific substance was solicited on the CRF.,Perm
Interventions,SU,13,SUOCCUR,SU Occurrence,Char,C66742,,,Record Qualifier,"When the use of specific substances is solicited, SUOCCUR is used to indicate whether or not (Y/N) a particular pre-specified substance was used. Values are null for substances not specifically solicited.",Perm
Interventions,SU,14,SUSTAT,Completion Status,Char,C66789,,,Record Qualifier,"When the use of pre-specified substances is solicited, the completion status indicates that there was no response to the question about the pre-specified substance. When there is no pre-specified list on the CRF, then the completion status indicates that substance use was not assessed for the subject.",Perm
Interventions,SU,15,SUREASND,Reason Substance Use Not Collected,Char,,,,Record Qualifier,Describes the reason substance use was not collected. Used in conjunction with SUSTAT when value of SUSTAT is NOT DONE.,Perm
Interventions,SU,16,SUCLAS,Substance Use Class,Char,,,,Variable Qualifier,"Substance use class. May be obtained from coding. When coding to a single class, populate with class value. If using a dictionary and coding to multiple classes,  then follow Section 4: 4.1.2.8.3, Multiple Values For A Non-Result Qualifier Variable or omit SUCLAS.",Perm
Interventions,SU,17,SUCLASCD,Substance Use Class Code,Char,,,,Variable Qualifier,Code corresponding to SUCLAS. May be obtained from coding.,Perm
Interventions,SU,18,SUDOSE,Substance Use Consumption,Num,,,,Record Qualifier,Amount of SUTRT consumed. Not populated if SUDOSTXT is populated.,Perm
Interventions,SU,19,SUDOSTXT,Substance Use Consumption Text,Char,,,,Record Qualifier,Substance use consumption amounts or a range of consumption information collected in text form. Not populated if SUDOSE is populated.,Perm
Interventions,SU,20,SUDOSU,Consumption Units,Char,C71620,,,Variable Qualifier,"Units for SUDOSE, SUDOSTOT, or SUDOSTXT. Examples:  OUNCES, CIGARETTE EQUIVALENTS, GRAMS.",Perm
Interventions,SU,21,SUDOSFRM,Dose Form,Char,,,,Variable Qualifier,"Dose form for SUTRT. Examples: INJECTABLE, LIQUID, or POWDER.",Perm
Interventions,SU,22,SUDOSFRQ,Use Frequency Per Interval,Char,C71113,,,Variable Qualifier,Usually expressed as the number of repeated administrations of SUDOSE within a specific time period. Example: Q24H (every day),Perm
Interventions,SU,23,SUDOSTOT,Total Daily Consumption,Num,,,,Record Qualifier,"Total daily use of SUTRT using the units in SUDOSU. Used when dosing is collected as Total Daily Dose. If sponsor needs to aggregate the data over a period other than daily, then the aggregated total could be recorded in a Supplemental Qualifier variable.",Perm
Interventions,SU,24,SUROUTE,Route of Administration,Char,C66729,,,Variable Qualifier,"Route of administration for SUTRT. Examples: ORAL, INTRAVENOUS.",Perm
Interventions,SU,25,SUSTDTC,Start Date/Time of Substance Use,Char,,,ISO 8601,Timing,,Perm
Interventions,SU,26,SUENDTC,End Date/Time of Substance Use,Char,,,ISO 8601,Timing,,Perm
Interventions,SU,27,SUSTDY,Study Day of Start of Substance Use,Num,,,,Timing,Study day of start of substance use relative to the sponsor-defined RFSTDTC.,Perm
Interventions,SU,28,SUENDY,Study Day of End of Substance Use,Num,,,,Timing,Study day of end of substance use relative to the sponsor-defined RFSTDTC.,Perm
Interventions,SU,29,SUDUR,Duration of Substance Use,Char,,,ISO 8601,Timing,Collected duration of substance use in ISO 8601 format. Used only if collected on the CRF and not derived from start and end date/times.,Perm
Interventions,SU,30,SUSTRF,Start Relative to Reference Period,Char,C66728,,,Timing,"Describes the start of the substance use relative to the sponsor-defined reference period. The sponsor-defined reference period is a continuous period of time defined by a discrete starting point and a discrete ending point (represented by RFSTDTC and RFENDTC in Demographics). If information such as ""PRIOR"", ""ONGOING"", or ""CONTINUING"" was collected, this information may be translated into SUSTRF.",Perm
Interventions,SU,31,SUENRF,End Relative to Reference Period,Char,C66728,,,Timing,"Describes the end of the substance use with relative to the sponsor-defined reference period. The sponsor-defined reference period is a continuous period of time defined by a discrete starting point and a discrete ending point (represented by RFSTDTC and RFENDTC in Demographics). If information such as ""PRIOR"", ""ONGOING"", or ""CONTINUING"" was collected, this information may be translated into SUENRF.",Perm
Interventions,SU,32,SUSTRTPT,Start Relative to Reference Time Point,Char,C66728,,,Timing,Identifies the start of the substance as being before or after the reference time point defined by variable SUSTTPT.,Perm
Interventions,SU,33,SUSTTPT,Start Reference Time Point,Char,,,,Timing,"Description or date/time in ISO 8601 character format of the reference point referred to by SUSTRTPT. Examples: ""2003-12-15"" or ""VISIT 1"".",Perm
Interventions,SU,34,SUENRTPT,End Relative to Reference Time Point,Char,C66728,,,Timing,Identifies the end of the substance as being before or after the reference time point defined by variable SUENTPT.,Perm
Interventions,SU,35,SUENTPT,End Reference Time Point,Char,,,,Timing,"Description or date/time in ISO 8601 character format of the reference point referred to by SUENRTPT. Examples: ""2003-12-25"" or ""VISIT 2"".",Perm
Events,AE,1,STUDYID,Study Identifier,Char,,,,Identifier,Unique identifier for a study.,Req
Events,AE,2,DOMAIN,Domain Abbreviation,Char,,AE,,Identifier,Two-character abbreviation for the domain.,Req
Events,AE,3,USUBJID,Unique Subject Identifier,Char,,,,Identifier,Identifier used to uniquely identify a subject across all studies for all applications or submissions involving the product.,Req
Events,AE,4,AESEQ,Sequence Number,Num,,,,Identifier,Sequence Number given to ensure uniqueness of subject records within a domain. May be any valid number.,Req
Events,AE,5,AEGRPID,Group ID,Char,,,,Identifier,Used to tie together a block of related records in a single domain for a subject.,Perm
Events,AE,6,AEREFID,Reference ID,Char,,,,Identifier,Internal or external identifier such as a serial number on an SAE reporting form.,Perm
Events,AE,7,AESPID,Sponsor-Defined Identifier,Char,,,,Identifier,Sponsor-defined identifier. It may be pre-printed on the CRF as an explicit line identifier or defined in the sponsor's operational database. Example: Line number on an Adverse Events page.,Perm
Events,AE,8,AETERM,Reported Term for the Adverse Event,Char,,,,Topic,Verbatim name of the event.,Req
Events,AE,9,AEMODIFY,Modified Reported Term,Char,,,,Synonym Qualifier,"If AETERM is modified to facilitate coding, then AEMODIFY will contain the modified text.",Perm
Events,AE,10,AELLT,Lowest Level Term,Char,,,MedDRA,Variable Qualifier,Dictionary-derived text description of the Lowest Level Term.,Exp
Events,AE,11,AELLTCD,Lowest Level Term Code,Num,,,MedDRA,Variable Qualifier,Dictionary-derived code for the Lowest Level Term.,Exp
Events,AE,12,AEDECOD,Dictionary-Derived Term,Char,,,MedDRA,Synonym Qualifier,Dictionary-derived text description of AETERM or AEMODIFY. Equivalent to the Preferred Term (PT in MedDRA). The sponsor is expected to provide the dictionary name and version used to map the terms utilizing the define.xml external codelist attributes.,Req
Events,AE,13,AEPTCD,Preferred Term Code,Num,,,MedDRA,Variable Qualifier,Dictionary-derived code for the Preferred Term.,Exp
Events,AE,14,AEHLT,High Level Term,Char,,,MedDRA,Variable Qualifier,Dictionary-derived text description of the High Level Term for the primary System Organ Class.,Exp
Events,AE,15,AEHLTCD,High Level Term Code,Num,,,MedDRA,Variable Qualifier,Dictionary-derived code for the High Level Term for the primary System Organ Class.,Exp
Events,AE,16,AEHLGT,High Level Group Term,Char,,,MedDRA,Variable Qualifier,Dictionary-derived text description of the High Level Group Term for the primary System Organ Class.,Exp
Events,AE,17,AEHLGTCD,High Level Group Term Code,Num,,,MedDRA,Variable Qualifier,Dictionary-derived code for the High Level Group Term for the primary System Organ Class.,Exp
Events,AE,18,AECAT,Category for Adverse Event,Char,,,,Grouping Qualifier,"Used to define a category of related records. Example: BLEEDING, NEUROPSYCHIATRIC.",Perm
Events,AE,19,AESCAT,Subcategory for Adverse Event,Char,,,,Grouping Qualifier,A further categorization of adverse event. Example: NEUROLOGIC.,Perm
Events,AE,20,AEPRESP,Pre-Specified Adverse Event,Char,C66742,,,Variable Qualifier,"A value of ""Y"" indicates that this adverse event was pre-specified on the CRF. Values are null for spontaneously reported events (i.e., those collected as free-text verbatim terms)",Perm
Events,AE,21,AEBODSYS,Body System or Organ Class,Char,,,,Record Qualifier,"Dictionary derived. Body system or organ class used by the sponsor from the coding dictionary (e.g., MedDRA). When using a multi-axial dictionary such as MedDRA, this should contain the SOC used for the sponsor's analyses and summary tables which may not necessarily be the primary SOC.",Exp
Events,AE,22,AEBDSYCD,Body System or Organ Class Code,Num,,,MedDRA,Variable Qualifier,"Dictionary derived. Code for the body system or organ class used by the sponsor. When using a multi-axial dictionary such as MedDRA, this should contain the SOC used for the sponsor's analyses and summary tables, which may not necessarily be the primary SOC.",Exp
Events,AE,23,AESOC,Primary System Organ Class,Char,,,MedDRA,Variable Qualifier,Dictionary-derived text description of the primary System Organ Class. Will be the same as AEBODSYS if the primary SOC was used for analysis.,Exp
Events,AE,24,AESOCCD,Primary System Organ Class Code,Num,,,MedDRA,Variable Qualifier,Dictionary-derived code for the primary System Organ Class. Will be the same as AEBDSYCD if the primary SOC was used for analysis.,Exp
Events,AE,25,AELOC,Location of Event,Char,C74456,,,Record Qualifier,"Describes anatomical location relevant for the event (e.g., ARM for skin rash).",Perm
Events,AE,26,AESEV,Severity/Intensity,Char,C66769,,,Record Qualifier,"The severity or intensity of the event. Examples: MILD, MODERATE, SEVERE.",Perm
Events,AE,27,AESER,Serious Event,Char,C66742,,,Record Qualifier,Is this a serious event?,Exp
Events,AE,28,AEACN,Action Taken with Study Treatment,Char,C66767,,,Record Qualifier,"Describes changes to the study treatment as a result of the event. AEACN is specifically for the relationship to study treatment. AEACNOTH is for actions unrelated to dose adjustments of study treatment. Examples of AEACN values include ICH E2B values: DRUG WITHDRAWN, DOSE REDUCED, DOSE INCREASED, DOSE NOT CHANGED, UNKNOWN or NOT APPLICABLE.",Exp
Events,AE,29,AEACNOTH,Other Action Taken,Char,,,,Record Qualifier,"Describes other actions taken as a result of the event that are unrelated to dose adjustments of study treatment. Usually reported as free text. Example: ""TREATMENT UNBLINDED. PRIMARY CARE PHYSICIAN NOTIFIED.""",Perm
Events,AE,30,AEREL,Causality,Char,,,,Record Qualifier,"Records the investigator's opinion as to the causality of the event to the treatment. ICH E2A and E2B examples include NOT RELATED, UNLIKELY RELATED, POSSIBLY RELATED, RELATED. Controlled Terminology may be defined in the future. Check with regulatory authority for population of this variable.",Exp
Events,AE,31,AERELNST,Relationship to Non-Study Treatment,Char,,,,Record Qualifier,"Records the investigator's opinion as to whether the event may have been due to a treatment other than study drug. May be reported as free text. Example: ""MORE LIKELY RELATED TO ASPIRIN USE."".",Perm
Events,AE,32,AEPATT,Pattern of Adverse Event,Char,,,,Record Qualifier,"Used to indicate the pattern of the event over time. Examples: INTERMITTENT, CONTINUOUS, SINGLE EVENT.",Perm
Events,AE,33,AEOUT,Outcome of Adverse Event,Char,C66768,,,Record Qualifier,Description of the outcome of an event.,Perm
Events,AE,34,AESCAN,Involves Cancer,Char,C66742,,,Record Qualifier,Was the serious event associated with the development of cancer?,Perm
Events,AE,35,AESCONG,Congenital Anomaly or Birth Defect,Char,C66742,,,Record Qualifier,Was the serious event associated with congenital anomaly or birth defect?,Perm
Events,AE,36,AESDISAB,Persist or Signif Disability/Incapacity,Char,C66742,,,Record Qualifier,Did the serious event result in persistent or significant disability/incapacity?,Perm
Events,AE,37,AESDTH,Results in Death,Char,C66742,,,Record Qualifier,Did the serious event result in death?,Perm
Events,AE,38,AESHOSP,Requires or Prolongs Hospitalization,Char,C66742,,,Record Qualifier,Did the serious event require or prolong hospitalization?,Perm
Events,AE,39,AESLIFE,Is Life Threatening,Char,C66742,,,Record Qualifier,Was the serious event life threatening?,Perm
Events,AE,40,AESOD,Occurred with Overdose,Char,C66742,,,Record Qualifier,Did the serious event occur with an overdose?,Perm
Events,AE,41,AESMIE,Other Medically Important Serious Event,Char,C66742,,,Record Qualifier,Do additional categories for seriousness apply?,Perm
Events,AE,42,AECONTRT,Concomitant or Additional Trtmnt Given,Char,C66742,,,Record Qualifier,Was another treatment given because of the occurrence of the event?,Perm
Events,AE,43,AETOXGR,Standard Toxicity Grade,Char,,,,Record Qualifier,"Toxicity grade according to a standard toxicity scale such as Common Terminology Criteria for Adverse Events v3.0 (CTCAE). Sponsor should specify name of the scale and version used in the metadata (see Assumption 6d). If value is from a numeric scale, represent only the number (e.g., ""2"" and not ""Grade 2"").",Perm
Events,AE,44,AESTDTC,Start Date/Time of Adverse Event,Char,,,ISO 8601,Timing,,Exp
Events,AE,45,AEENDTC,End Date/Time of Adverse Event,Char,,,ISO 8601,Timing,,Exp
Events,AE,46,AESTDY,Study Day of Start of Adverse Event,Num,,,,Timing,Study day of start of adverse event relative to the sponsor-defined RFSTDTC.,Perm
Events,AE,47,AEENDY,Study Day of End of Adverse Event,Num,,,,Timing,Study day of end of event relative to the sponsor-defined RFSTDTC.,Perm
Events,AE,48,AEDUR,Duration of Adverse Event,Char,,,ISO 8601,Timing,"Collected duration and unit of an adverse event. Used only if collected on the CRF and not derived from start and end date/times. Example: P1DT2H (for 1 day, 2 hours).",Perm
Events,AE,49,AEENRF,End Relative to Reference Period,Char,C66728,,,Timing,Describes the end of the event relative to the sponsor-defined reference period. The sponsor-defined reference period is a continuous period of time defined by a discrete starting point (RFSTDTC) and a discrete ending point (RFENDTC) of the trial.,Perm
Events,AE,50,AEENRTPT,End Relative to Reference Time Point,Char,C66728,,,Timing,Identifies the end of the event as being before or after the reference time point defined by variable AEENTPT.,Perm
Events,AE,51,AEENTPT,End Reference Time Point,Char,,,,Timing,"Description of date/time in ISO 8601 character format of the reference point referred to by AEENRTPT. Examples: ""2003-12-25"" or ""VISIT 2"".",Perm
Events,CE,1,STUDYID,Study Identifier,Char,,,,Identifier,Unique identifier for a study.,Req
Events,CE,2,DOMAIN,Domain Abbreviation,Char,,CE,,Identifier,Two-character abbreviation for the domain.,Req
Events,CE,3,USUBJID,Unique Subject Identifier,Char,,,,Identifier,Identifier used to uniquely identify a subject across all studies for all applications or submissions involving the product.,Req
Events,CE,4,CESEQ,Sequence Number,Num,,,,Identifier,Sequence Number given to ensure uniqueness of subject records within a domain. May be any valid number.,Req
Events,CE,5,CEGRPID,Group ID,Char,,,,Identifier,Used to tie together a block of related records for a subject within a domain.,Perm
Events,CE,6,CEREFID,Reference ID,Char,,,,Identifier,Internal or external identifier.,Perm
Events,CE,7,CESPID,Sponsor-Defined Identifier,Char,,,,Identifier,Sponsor-defined reference number. Perhaps pre-printed on the CRF as an explicit line identifier or defined in the sponsor's operational database. Example: Line number on a CRF page.,Perm
Events,CE,8,CETERM,Reported Term for the Clinical Event,Char,,,,Topic,Term for the medical condition or event. Most likely pre-printed on CRF.,Req
Events,CE,9,CEDECOD,Dictionary-Derived Term,Char,,,,Synonym Qualifier,Controlled terminology for the name of the clinical event. The sponsor is expected to provide the dictionary name and version used to map the terms utilizing the define.xml external codelist attributes,Perm
Events,CE,10,CECAT,Category for Clinical Event,Char,,,,Grouping Qualifier,Used to define a category of related records.,Perm
Events,CE,11,CESCAT,Subcategory for Clinical Event,Char,,,,Grouping Qualifier,A further categorization of the condition or event.,Perm
Events,CE,12,CEPRESP,Clinical Event Pre-Specified,Char,C66742,,,Variable Qualifier,"Used to indicate whether the Event in CETERM was pre-specified. Value is Y for pre-specified events, null for spontaneously reported events.",Perm
Events,CE,13,CEOCCUR,Clinical Event Occurrence,Char,C66742,,,Record Qualifier,Used when the occurrence of specific events is solicited to indicate whether or not a clinical event occurred. Values are null for spontaneously reported events.,Perm
Events,CE,14,CESTAT,Completion Status,Char,C66789,,,Record Qualifier,The status indicates that a question from a pre-specified list was not answered.,Perm
Events,CE,15,CEREASND,Reason Clinical Event Not Collected,Char,,,,Record Qualifier,Describes the reason clinical event data was not collected. Used in conjunction with CESTAT when value is NOT DONE.,Perm
Events,CE,16,CEBODSYS,Body System or Organ Class,Char,,,,Record Qualifier,"Dictionary-derived. Body system or organ class that is involved in an event or measurement from a standard hierarchy (e.g., MedDRA). When using a multi-axial dictionary such as MedDRA, this should contain the SOC used for the sponsor's analyses and summary tables which may not necessarily be the primary SOC.",Perm
Events,CE,17,CESEV,Severity/Intensity,Char,,,,Record Qualifier,"The severity or intensity of the event. Examples: MILD, MODERATE, SEVERE",Perm
Events,CE,18,CEDTC,Date/Time of Event Collection,Char,,,ISO 8601,Timing,,Perm
Events,CE,19,CESTDTC,Start Date/Time of Clinical Event,Char,,,ISO 8601,Timing,,Perm
Events,CE,20,CEENDTC,End Date/Time of Clinical Event,Char,,,ISO 8601,Timing,,Perm
Events,CE,21,CEDY,Study Day of Event Collection,Num,,,,Timing,"1. Study day of clinical event collection, measured as integer days. 2. Algorithm for calculations must be relative to the sponsor-defined RFSTDTC variable in Demographics. This formula should be consistent across the submission.",Perm
Events,CE,22,CESTRF,Start Relative to Reference Period,Char,C66728,,,Timing,Describes the start of the clinical event relative to the sponsor-defined reference period. The sponsor-defined reference period is a continuous period of time defined by a discrete starting point and a discrete ending point (represented by RFSTDTC and RFENDTC in Demographics).,Perm
Events,CE,23,CEENRF,End Relative to Reference Period,Char,C66728,,,Timing,Describes the end of the event relative to the sponsor-defined reference period. The sponsor-defined reference period is a continuous period of time defined by a discrete starting point and a discrete ending point (represented by RFSTDTC and RFENDTC in Demographics).,Perm
Events,CE,24,CESTRTPT,Start Relative to Reference Time Point,Char,C66728,,,Timing,Identifies the start of the observation as being before or after the reference time point defined by variable CESTTPT.,Perm
Events,CE,25,CESTTPT,Start Reference Time Point,Char,,,,Timing,"Description or date/time in ISO 8601 character format of the sponsor-defined reference point referred to by --STRTPT. Examples: ""2003-12-15"" or ""VISIT 1"".",Perm
Events,CE,26,CEENRTPT,End Relative to Reference Time Point,Char,C66728,,,Timing,Identifies the end of the event as being before or after the reference time point defined by variable CEENTPT.,Perm
Events,CE,27,CEENTPT,End Reference Time Point,Char,,,,Timing,"Description or date/time in ISO 8601 character format of the reference point referred to by CEENRTPT. Examples: ""2003-12-25"" or ""VISIT 2"".",Perm
Events,DS,1,STUDYID,Study Identifier,Char,,,,Identifier,Unique identifier for a study.,Req
Events,DS,2,DOMAIN,Domain Abbreviation,Char,,DS,,Identifier,Two-character abbreviation for the domain.,Req
Events,DS,3,USUBJID,Unique Subject Identifier,Char,,,,Identifier,Identifier used to uniquely identify a subject across all studies for all applications or submissions involving the product.,Req
Events,DS,4,DSSEQ,Sequence Number,Num,,,,Identifier,Sequence Number given to ensure uniqueness of subject records within a domain. May be any valid number.,Req
Events,DS,5,DSGRPID,Group ID,Char,,,,Identifier,Used to tie together a block of related records in a single domain for a subject.,Perm
Events,DS,6,DSREFID,Reference ID,Char,,,,Identifier,Internal or external identifier.,Perm
Events,DS,7,DSSPID,Sponsor-Defined Identifier,Char,,,,Identifier,Sponsor-defined reference number. Perhaps pre-printed on the CRF as an explicit line identifier or defined in the sponsor's operational database. Example: Line number on a Disposition page.,Perm
Events,DS,8,DSTERM,Reported Term for the Disposition Event,Char,,,,Topic,"Verbatim name of the event or protocol milestone. Some terms in DSTERM will match DSDECOD, but others, such as ""Subject moved"" will map to controlled terminology in DSDECOD, such as ""LOST TO FOLLOW-UP.""",Req
Events,DS,9,DSDECOD,Standardized Disposition Term,Char,C66727,,,Synonym Qualifier,"Controlled terminology for the name of disposition event or protocol milestone. Examples of protocol milestones: INFORMED CONSENT OBTAINED, RANDOMIZED",Req
Events,DS,10,DSCAT,Category for Disposition Event,Char,C74558,,,Grouping Qualifier,"Used to define a category of related records. DSCAT is now an ""Expected"" variable. DSCAT was permissible in SDTMIG 3.1.1 and earlier versions. The change from ""permissible"" to ""expected"" is based on the requirement to distinguish protocol milestones and/or other events from disposition events. DSCAT may be null if there are only ""disposition events""; however, it is recommended that DSCAT always be populated.",Exp
Events,DS,11,DSSCAT,Subcategory for Disposition Event,Char,,,,Grouping Qualifier,A further categorization of disposition event.,Perm
Events,DS,12,EPOCH,Epoch,Char,C99079,,,Timing,"EPOCH may be used when DSCAT = ""DISPOSITION EVENT"". Examples: SCREENING, TREATMENT, FOLLOW-UP",Perm
Events,DS,13,DSDTC,Date/Time of Collection,Char,,,ISO 8601,Timing,,Perm
Events,DS,14,DSSTDTC,Start Date/Time of Disposition Event,Char,,,ISO 8601,Timing,,Exp
Events,DS,15,DSSTDY,Study Day of Start of Disposition Event,Num,,,,Timing,Study day of start of event relative to the sponsor-defined RFSTDTC.,Perm
Events,DV,1,STUDYID,Study Identifier,Char,,,,Identifier,Unique identifier for a study.,Req
Events,DV,2,DOMAIN,Domain Abbreviation,Char,,DV,,Identifier,Two-character abbreviation for the domain.,Req
Events,DV,3,USUBJID,Unique Subject Identifier,Char,,,,Identifier,Identifier used to uniquely identify a subject across all studies for all applications or submissions involving the product.,Req
Events,DV,4,DVSEQ,Sequence Number,Num,,,,Identifier,Sequence Number given to ensure uniqueness of subject records within a domain. May be any valid number.,Req
Events,DV,5,DVREFID,Reference ID,Char,,,,Identifier,Internal or external identifier.,Perm
Events,DV,6,DVSPID,Sponsor-Defined Identifier,Char,,,,Identifier,Sponsor-defined reference number. Perhaps pre-printed on the CRF as an explicit line identifier or defined in the sponsor's operational database. Example: Line number on a CRF page.,Perm
Events,DV,7,DVTERM,Protocol Deviation Term,Char,,,,Topic,"Verbatim name of the protocol deviation criterion. Example: IVRS PROCESS DEVIATION - NO DOSE CALL PERFORMED. The DVTERM values will map to the controlled terminology in DVDECOD, such as TREATMENT DEVIATION.",Req
Events,DV,8,DVDECOD,Protocol Deviation Coded Term,Char,,,,Synonym Qualifier,"Controlled terminology for the name of the protocol deviation. Examples: SUBJECT NOT WITHDRAWN AS PER PROTOCOL, SELECTION CRITERIA NOT MET, EXCLUDED CONCOMITANT MEDICATION, TREATMENT DEVIATION.",Perm
Events,DV,9,DVCAT,Category for Protocol Deviation,Char,,,,Grouping Qualifier,Category of the protocol deviation criterion.,Perm
Events,DV,10,DVSCAT,Subcategory for Protocol Deviation,Char,,,,Grouping Qualifier,A further categorization of the protocol deviation.,Perm
Events,DV,11,EPOCH,Epoch,Char,C99079,,,Timing,"Epoch associated with the start date/time of the deviation. Examples: TREATMENT PHASE, SCREENING, and FOLLOW-UP.",Perm
Events,DV,12,DVSTDTC,Start Date/Time of Deviation,Char,,,ISO 8601,Timing,Start date/time of deviation represented in ISO 8601 character format.,Perm
Events,DV,13,DVENDTC,End Date/Time of Deviation,Char,,,ISO 8601,Timing,End date/time of deviation represented in ISO 8601 character format.,Perm
Events,HO,1,STUDYID,Study Identifier,Char,,,,Identifier,Unique identifier for a study.,Req
Events,HO,2,DOMAIN,Domain Abbreviation,Char,,HO,,Identifier,Two-character abbreviation for the domain.,Req
Events,HO,3,USUBJID,Unique Subject Identifier,Char,,,,Identifier,Identifier used to uniquely identify a subject across all studies for all applications or submissions involving the product.,Req
Events,HO,4,HOSEQ,Sequence Number,Num,,,,Identifier,Sequence Number given to ensure uniqueness of subject records within a domain. May be any valid number.,Req
Events,HO,5,HOGRPID,Group ID,Char,,,,Identifier,Used to tie together a block of related records in a single domain for a subject.,Perm
Events,HO,6,HOREFID,Reference ID,Char,,,,Identifier,Internal or external healthcare encounter identifier.,Perm
Events,HO,7,HOSPID,Sponsor-Defined Identifier,Char,,,,Identifier,Sponsor-defined identifier. It may be pre-printed on the CRF as an explicit line identifier or defined in the sponsor's operational database. Example: Line number on a Healthcare encounters page.,Perm
Events,HO,8,HOTERM,Reported Term for the Healthcare Encounter,Char,,,,Topic,Verbatim or preprinted CRF term for the healthcare encounter.,Req
Events,HO,9,HODECOD,Dictionary-Derived Term for the Healthcare Encounter,Char,,,,Synonym Qualifier,Dictionary or sponsor-defined derived text description of HOTERM or the modified topic variable (HOMODIFY).,Perm
Events,HO,10,HOCAT,Category for Healthcare Encounter,Char,,,,Grouping Qualifier,Used to define a category of topic-related values.,Perm
Events,HO,11,HOSCAT,Subcategory for Healthcare Encounter,Char,,,,Grouping Qualifier,A further categorization of HOCAT values.,Perm
Events,HO,12,HOPRESP,Pre-Specified Healthcare Encounter,Char,C66742,,,Record Qualifier,"A value of ""Y"" indicates that this healthcare encounter event was pre-specified on the CRF. Values are null for spontaneously reported events (i.e., those collected as free-text verbatim terms)",Perm
Events,HO,13,HOOCCUR,Healthcare Encounter Occurrence,Char,C66742,,,Record Qualifier,Used when the occurrence of specific healthcare encounters is solicited to indicate whether or not an encounter occurred. Values are null for spontaneously reported events.,Perm
Events,HO,14,HOSTAT,Completion Status,Char,C66789,,,Record Qualifier,The status indicates that the pre-specified question was not answered.,Perm
Events,HO,15,HOREASND,Reason Healthcare Encounter Not Done,Char,,,,Record Qualifier,Describes the reason data for a pre-specified event was not collected. Used in conjunction with HOSTAT when value is NOT DONE.,Perm
Events,HO,16,HODTC,Date/Time of Event Collection,Char,,,ISO 8601,Timing,Collection date and time of the healthcare encounter.,Perm
Events,HO,17,HOSTDTC,Start Date/Time of Healthcare Encounter,Char,,,ISO 8601,Timing,"Start date/time of the healthcare encounter (e.g., date of admission).",Exp
Events,HO,18,HOENDTC,End Date/Time of Healthcare Encounter,Char,,,ISO 8601,Timing,End date/time of the healthcare encounter (date of discharge).,Perm
Events,HO,19,HODY,Study Day of Event Collection,Num,,,,Timing,Study day of event collection relative to the sponsor-defined RFSTDTC.,Perm
Events,HO,20,HOSTDY,Study Day of Start of Healthcare Encounter,Num,,,,Timing,Study day of the start of the healthcare encounter relative to the sponsor-defined RFSTDTC.,Perm
Events,HO,21,HOENDY,Study Day of End of Healthcare Encounter,Num,,,,Timing,Study day of the end of the healthcare encounter relative to the sponsor-defined RFSTDTC.,Perm
Events,HO,22,HODUR,Duration of Healthcare Encounter,Char,,,ISO 8601,Timing,"Collected duration of the healthcare encounter. Used only if collected on the CRF and not derived from the start and end date/times. Example: P1DT2H (for 1 day, 2 hours).",Perm
Events,HO,23,HOSTRTPT,Start Relative to Reference Time Point,Char,C66728,,,Timing,Identifies the start of the observation as being before or after the sponsor-defined reference time point defined by variable --STTPT.,Perm
Events,HO,24,HOSTTPT,Start Reference Time Point,Char,,,,Timing,"Description or date/time in ISO 8601 character format of the sponsor-defined reference point referred to by STRTPT. Examples: ""2003-12-15"" or ""VISIT 1"".",Perm
Events,HO,25,HOENRTPT,End Relative to Reference Time Point,Char,C66728,,,Timing,Identifies the end of the event as being before or after the reference time point defined by variable HOENTPT.,Perm
Events,HO,26,HOENTPT,End Reference Time Point,Char,,,,Timing,"Description or date/time in ISO 8601 character format of the reference point referred to by HOENRTPT. Examples: ""2003-12-25"" or ""VISIT 2"".",Perm
Events,MH,1,STUDYID,Study Identifier,Char,,,,Identifier,Unique identifier for a study.,Req
Events,MH,2,DOMAIN,Domain Abbreviation,Char,,MH,,Identifier,Two-character abbreviation for the domain.,Req
Events,MH,3,USUBJID,Unique Subject Identifier,Char,,,,Identifier,Identifier used to uniquely identify a subject across all studies for all applications or submissions involving the product.,Req
Events,MH,4,MHSEQ,Sequence Number,Num,,,,Identifier,Sequence Number given to ensure uniqueness of subject records within a domain. May be any valid number.,Req
Events,MH,5,MHGRPID,Group ID,Char,,,,Identifier,Used to tie together a block of related records in a single domain for a subject.,Perm
Events,MH,6,MHREFID,Reference ID,Char,,,,Identifier,Internal or external medical history identifier.,Perm
Events,MH,7,MHSPID,Sponsor-Defined Identifier,Char,,,,Identifier,Sponsor-defined reference number. Perhaps pre-printed on the CRF as an explicit line identifier or defined in the sponsor's operational database. Example: Line number on a Medical History page.,Perm
Events,MH,8,MHTERM,Reported Term for the Medical History,Char,,,,Topic,Verbatim or preprinted CRF term for the medical condition or event.,Req
Events,MH,9,MHMODIFY,Modified Reported Term,Char,,,,Synonym Qualifier,"If MHTERM is modified to facilitate coding, then MHMODIFY will contain the modified text.",Perm
Events,MH,10,MHDECOD,Dictionary-Derived Term,Char,,,,Synonym Qualifier,Dictionary-derived text description of MHTERM or MHMODIFY. Equivalent to the Preferred Term (PT in MedDRA). The sponsor is expected to provide the dictionary name and version used to map the terms utilizing the define.xml external codelist attributes.,Perm
Events,MH,11,MHCAT,Category for Medical History,Char,,,,Grouping Qualifier,Used to define a category of related records. Examples: CARDIAC or GENERAL,Perm
Events,MH,12,MHSCAT,Subcategory for Medical History,Char,,,,Grouping Qualifier,A further categorization of the condition or event.,Perm
Events,MH,13,MHPRESP,Medical History Event Pre-Specified,Char,C66742,,,Variable Qualifier,"A value of ""Y"" indicates that this medical history event was pre-specified on the CRF. Values are null for spontaneously reported events (i.e., those collected as free-text verbatim terms)",Perm
Events,MH,14,MHOCCUR,Medical History Occurrence,Char,C66742,,,Record Qualifier,Used when the occurrence of specific medical history conditions is solicited to indicate whether or not (Y/N) a medical condition (MHTERM) had ever occurred. Values are null for spontaneously reported events.,Perm
Events,MH,15,MHSTAT,Completion Status,Char,C66789,,,Record Qualifier,The status indicates that the pre-specified question was not asked/answered.,Perm
Events,MH,16,MHREASND,Reason Medical History Not Done or Not Occurred,Char,,,,Record Qualifier,Reason the question was not asked/answered or an intervention did not occur. Used in conjunction with negation indicators --STAT of 'NOT DONE' or --OCCUR of 'N',Perm
Events,MH,17,MHBODSYS,Body System or Organ Class,Char,,,,Record Qualifier,"Dictionary-derived. Body system or organ class that is involved in an event or measurement from a standard hierarchy (e.g., MedDRA). When using a multi-axial dictionary such as MedDRA, this should contain the SOC used for the sponsor's analyses and summary tables which may not necessarily be the primary SOC.",Perm
Events,MH,18,MHDTC,Date/Time of History Collection,Char,,,ISO 8601,Timing,,Perm
Events,MH,19,MHSTDTC,Start Date/Time of Medical History Event,Char,,,ISO 8601,Timing,,Perm
Events,MH,20,MHENDTC,End Date/Time of Medical History Event,Char,,,ISO 8601,Timing,,Perm
Events,MH,21,MHDY,Study Day of History Collection,Num,,,,Timing,"1. Study day of medical history collection, measured as integer days. 2. Algorithm for calculations must be relative to the sponsor-defined RFSTDTC variable in Demographics. This formula should be consistent across the submission.",Perm
Events,MH,22,MHENRF,End Relative to Reference Period,Char,C66728,,,Timing,Describes the end of the event relative to the sponsor-defined reference period. The sponsor-defined reference period is a continuous period of time defined by a discrete starting point and a discrete ending point (represented by RFSTDTC and RFENDTC in Demographics),Perm
Events,MH,23,MHENRTPT,End Relative to Reference Time Point,Char,,AFTER; BEFORE; COINCIDENT; ONGOING; U,,Timing,Identifies the end of the event as being before or after the reference time point defined by variable MHENTPT.,Perm
Events,MH,24,MHENTPT,End Reference Time Point,Char,,,,Timing,"Description or date/time in ISO 8601 character format of the reference point referred to by MHENRTPT. Examples: ""2003-12-25"" or ""VISIT 2"".",Perm
Findings,DA,1,STUDYID,Study Identifier,Char,,,,Identifier,Unique identifier for a study within the submission.,Req
Findings,DA,2,DOMAIN,Domain Abbreviation,Char,,DA,,Identifier,Two-character abbreviation for the domain.,Req
Findings,DA,3,USUBJID,Unique Subject Identifier,Char,,,,Identifier,Unique subject identifier within the submission.,Req
Findings,DA,4,DASEQ,Sequence Number,Num,,,,Identifier,Sequence Number given to ensure uniqueness of subject records within a domain. May be any valid number.,Req
Findings,DA,5,DAGRPID,Group ID,Char,,,,Identifier,Used to tie together a block of related records in a single domain for a subject.,Perm
Findings,DA,6,DAREFID,Reference ID,Char,,,,Identifier,Internal or external identifier such as label number.,Perm
Findings,DA,7,DASPID,Sponsor-Defined Identifier,Char,,,,Identifier,"Sponsor-defined reference number. Perhaps pre-printed on the CRF as an explicit line identifier or defined in the sponsor's operational database. Examples: Line number on the Drug Accountability page, drug label code.",Perm
Findings,DA,8,DATESTCD,Short Name of Accountability Assessment,Char,,,,Topic,"Short character value for DATEST used as a column name when converting a dataset from a vertical format to a horizontal format. The short value can be up to 8 characters and cannot begin with a number or contain characters other than letters, numbers or underscores. Example: DISPAMT, RETAMT.",Req
Findings,DA,9,DATEST,Name of Accountability Assessment,Char,,,,Synonym Qualifier,"Verbatim name, corresponding to the topic variable, of the test or examination used to obtain the drug accountability assessment. The value in DATEST cannot be longer than 40 characters. Example: Dispensed Amount, Returned Amount.",Req
Findings,DA,10,DACAT,Category of Assessment,Char,,,,Grouping Qualifier,"Used to define a category of related records. Examples: STUDY MEDICATION, RESCUE MEDICATION.",Perm
Findings,DA,11,DASCAT,Subcategory of Assessment,Char,,,,Grouping Qualifier,Used to define a further categorization level for a group of related records.,Perm
Findings,DA,12,DAORRES,Assessment Result in Original Units,Char,,,,Result Qualifier,Result of the Drug Accountability assessment as originally received or collected.,Exp
Findings,DA,13,DAORRESU,Original Units,Char,C71620,,,Variable Qualifier,Unit for DAORRES.,Perm
Findings,DA,14,DASTRESC,Assessment Result in Std Format,Char,,,,Result Qualifier,"Contains the result value for all Drug Accountability assessments, copied or derived from DAORRES in a standard format or in standard units. DASTRESC should store all results or findings in character format; if results are numeric, they should also be stored in numeric format in DASTRESN.",Exp
Findings,DA,15,DASTRESN,Numeric Result/Finding in Standard Units,Num,,,,Result Qualifier,Used for continuous or numeric results or findings in standard format; copied in numeric format from DASTRESC. DASTRESN should store all numeric test results or findings.,Perm
Findings,DA,16,DASTRESU,Assessment Standard Units,Char,C71620,,,Variable Qualifier,Standardized units used for DASTRESC and DASTRESN.,Perm
Findings,DA,17,DASTAT,Completion Status,Char,C66789,,,Record Qualifier,Used to indicate that a drug accountability assessment was not done. Should be null or have a value of NOT DONE.,Perm
Findings,DA,18,DAREASND,Reason Not Performed,Char,,,,Record Qualifier,Reason not done. Used in conjunction with DASTAT when value is NOT DONE.,Perm
Findings,DA,19,VISITNUM,Visit Number,Num,,,,Timing,"1. Clinical encounter number. 2. Numeric version of VISIT, used for sorting.",Exp
Findings,DA,20,VISIT,Visit Name,Char,,,,Timing,1. Protocol-defined description of clinical encounter 2. May be used in addition to VISITNUM and/or VISITDY,Perm
Findings,DA,21,VISITDY,Planned Study Day of Visit,Num,,,,Timing,Planned study day of the visit based upon RFSTDTC in Demographics.,Perm
Findings,DA,22,DADTC,Date/Time of Accountability Assessment,Char,,,ISO 8601,Timing,,Exp
Findings,DA,23,DADY,Study Day of Accountability Assessment,Num,,,,Timing,"1. Study day of drug accountability assessment, measured as integer days. 2. Algorithm for calculations must be relative to the sponsor-defined RFSTDTC variable in Demographics.",Perm
Findings,DD,1,STUDYID,Study Identifier,Char,,,,Identifier,Unique identifier for a study.,Req
Findings,DD,2,DOMAIN,Domain Abbreviation,Char,,DD,,Identifier,Two-character abbreviation for the domain.,Req
Findings,DD,3,USUBJID,Unique Subject Identifier,Char,,,,Identifier,Identifier used to uniquely identify a subject across all studies for all applications or submissions involving the product.,Req
Findings,DD,4,DDSEQ,Sequence Number,Num,,,,Identifier,Sequence number given to ensure uniqueness of subject records within a domain. May be any valid number.,Req
Findings,DD,5,DDTESTCD,Death Detail Assessment Short Name,Char,,,,Topic,"Short name of the measurement, test, or examination described in DDTEST. It can be used as a column name when converting a dataset from a vertical to a horizontal format. The value in DDTESTCD cannot be longer than 8 characters, nor can it start with a number (e.g., ""1TEST"" is not valid). DDTESTCD cannot contain characters other than letters, numbers, or underscores. Examples: DIAGPRIM, DIAGSEC, DTHWIT",Req
Findings,DD,6,DDTEST,Death Detail Assessment Name,Char,,,,Synonym Qualifier,"Long name for DDTESTCD. The value in DDTEST cannot be longer than 40 characters. Examples: Primary Diagnosis, Secondary Diagnosis, Was Death Witnessed?",Req
Findings,DD,7,DDORRES,Result or Finding as Collected,Char,,,,Result Qualifier,"Result of the test defined in DDTEST, as originally received or collected.",Exp
Findings,DD,8,DDSTRESC,Character Result/Finding in Std Format,Char,,,,Result Qualifier,Contains the result or finding copied or derived from DDORRES in a standard format.,Exp
Findings,DD,9,DDRESCAT,Result Category,Char,,,,Variable Qualifier,"Used to categorize the result of a finding. Examples: TREATMENT RELATED, NONTREATMENT RELATED, UNDETERMINED, ACCIDENTAL",Perm
Findings,DD,10,DDEVAL,Evaluator,Char,C78735,,,Record Qualifier,Role of the person who provided the evaluation.,Perm
Findings,DD,11,DDDTC,Date/Time of Collection,Char,,,ISO 8601,Timing,Date/time of collection of the diagnosis or other death assessment data in ISO 8601 format. This is not necessarily the date of death.,Exp
Findings,DD,12,DDDY,Study Day of Collection,Num,,,,Timing,"Study day of the collection, in integer days.  The algorithm for calculations must be relative to the sponsor-defined RFSTDTC variable in the Demographics (DM) domain.",Perm
Findings,EG,1,STUDYID,Study Identifier,Char,,,,Identifier,Unique identifier for a study.,Req
Findings,EG,2,DOMAIN,Domain Abbreviation,Char,,EG,,Identifier,Two-character abbreviation for the domain.,Req
Findings,EG,3,USUBJID,Unique Subject Identifier,Char,,,,Identifier,Identifier used to uniquely identify a subject across all studies for all applications or submissions involving the product.,Req
Findings,EG,4,EGSEQ,Sequence Number,Num,,,,Identifier,Sequence Number given to ensure uniqueness of subject records within a domain. May be any valid number.,Req
Findings,EG,5,EGGRPID,Group ID,Char,,,,Identifier,Used to tie together a block of related records in a single domain for a subject.,Perm
Findings,EG,6,EGREFID,ECG Reference ID,Char,,,,Identifier,Internal or external ECG identifier. Example: UUID.,Perm
Findings,EG,7,EGSPID,Sponsor-Defined Identifier,Char,,,,Identifier,Sponsor-defined reference number. Perhaps pre-printed on the CRF as an explicit line identifier or defined in the sponsor's operational database. Example: Line number from the ECG page.,Perm
Findings,EG,8,EGTESTCD,ECG Test or Examination Short Name,Char,C71153,,,Topic,"Short name of the measurement, test, or examination described in EGTEST. It can be used as a column name when converting a dataset from a vertical to a horizontal format. The value in EGTESTCD cannot be longer than 8 characters, nor can it start with a number (e.g., ""1TEST""). EGTESTCD cannot contain characters other than letters, numbers, or underscores. Examples :PRMEAN, QTMEAN",Req
Findings,EG,9,EGTEST,ECG Test or Examination Name,Char,C71152,,,Synonym Qualifier,"Verbatim name of the test or examination used to obtain the measurement or finding. The value in EGTEST cannot be longer than 40 characters. Examples: Summary (Mean) PR Duration, Summary (Mean) QT Duration",Req
Findings,EG,10,EGCAT,Category for ECG,Char,,,,Grouping Qualifier,"Used to categorize ECG observations across subjects. Examples: MEASUREMENT, FINDING, INTERVAL",Perm
Findings,EG,11,EGSCAT,Subcategory for ECG,Char,,,,Grouping Qualifier,A further categorization of the ECG.,Perm
Findings,EG,12,EGPOS,ECG Position of Subject,Char,C71148,,,Record Qualifier,"Position of the subject during a measurement or examination. Examples: SUPINE, STANDING, SITTING.",Perm
Findings,EG,13,EGORRES,Result or Finding in Original Units,Char,,,,Result Qualifier,"Result of the ECG measurement or finding as originally received or collected. Examples of expected values are 62 or 0.151 when the result is an interval or measurement, or ""ATRIAL FIBRILLATION"" or ""QT PROLONGATION"" when the result is a finding.",Exp
Findings,EG,14,EGORRESU,Original Units,Char,C71620,,,Variable Qualifier,Original units in which the data were collected. The unit for EGORRES. Examples: sec or msec.,Perm
Findings,EG,15,EGSTRESC,Character Result/Finding in Std Format,Char,C71150,,,Result Qualifier,"Contains the result value for all findings, copied or derived from EGORRES in a standard format or standard units. EGSTRESC should store all results or findings in character format; if results are numeric, they should also be stored in numeric format in EGSTRESN. For example, if a test has results of ""NONE"", ""NEG"", and ""NEGATIVE"" in EGORRES and these results effectively have the same meaning, they could be represented in standard format in EGSTRESC as ""NEGATIVE"". For other examples, see general assumptions. Additional examples of result data: SINUS BRADYCARDIA, ATRIAL FLUTTER, ATRIAL FIBRILLATION.",Exp
Findings,EG,16,EGSTRESN,Numeric Result/Finding in Standard Units,Num,,,,Result Qualifier,Used for continuous or numeric results or findings in standard format; copied in numeric format from EGSTRESC. EGSTRESN should store all numeric test results or findings.,Perm
Findings,EG,17,EGSTRESU,Standard Units,Char,C71620,,,Variable Qualifier,Standardized unit used for EGSTRESC or EGSTRESN.,Perm
Findings,EG,18,EGSTAT,Completion Status,Char,C66789,,,Record Qualifier,"Used to indicate an ECG was not done, or an ECG measurement was not taken. Should be null if a result exists in EGORRES.",Perm
Findings,EG,19,EGREASND,Reason ECG Not Performed,Char,,,,Record Qualifier,Describes why a measurement or test was not performed. Examples: BROKEN EQUIPMENT or SUBJECT REFUSED. Used in conjunction with EGSTAT when value is NOT DONE.,Perm
Findings,EG,20,EGXFN,ECG External File Path,Char,,,,Record Qualifier,File name and path for the external ECG Waveform file.,Perm
Findings,EG,21,EGNAM,Vendor Name,Char,,,,Record Qualifier,Name or identifier of the laboratory or vendor who provided the test results.,Perm
Findings,EG,22,EGLEAD,Lead Location Used for Measurement,Char,C74456,,,Record Qualifier,"The lead used for the measurement, examples, V1, V6, aVR, I, II, III.",Perm
Findings,EG,23,EGMETHOD,Method of ECG Test,Char,C71151,,,Record Qualifier,Method of the ECG test. Examples: 12 LEAD STANDARD.,Perm
Findings,EG,24,EGBLFL,Baseline Flag,Char,C66742,,,Record Qualifier,"Indicator used to identify a baseline value. The value should be ""Y"" or null.",Exp
Findings,EG,25,EGDRVFL,Derived Flag,Char,C66742,,,Record Qualifier,"Used to indicate a derived record. The value should be Y or null. Records which represent the average of other records, or that do not come from the CRF, or are not as originally collected or received are examples of records that would be derived for the submission datasets. If EGDRVFL=Y, then EGORRES could be null, with EGSTRESC, and (if numeric) EGSTRESN having the derived value.",Perm
Findings,EG,26,EGEVAL,Evaluator,Char,,,,Record Qualifier,"Role of the person who provided the evaluation. Used only for results that are subjective (e.g., assigned by a person or a group). Should be null for records that contain collected or derived data. Examples: INVESTIGATOR, ADJUDICATION COMMITTEE, VENDOR.",Perm
Findings,EG,27,VISITNUM,Visit Number,Num,,,,Timing,"1. Clinical encounter number. 2. Numeric version of VISIT, used for sorting.",Exp
Findings,EG,28,VISIT,Visit Name,Char,,,,Timing,1. Protocol-defined description of clinical encounter. 2. May be used in addition to VISITNUM and/or VISITDY.,Perm
Findings,EG,29,VISITDY,Planned Study Day of Visit,Num,,,,Timing,Planned study day of the visit based upon RFSTDTC in Demographics.,Perm
Findings,EG,30,EGDTC,Date/Time of ECG,Char,,,ISO 8601,Timing,Date of ECG.,Exp
Findings,EG,31,EGDY,Study Day of ECG,Num,,,,Timing,"1. Study day of the ECG, measured as integer days. 2. Algorithm for calculations must be relative to the sponsor-defined RFSTDTC variable in Demographics.",Perm
Findings,EG,32,EGTPT,Planned Time Point Name,Char,,,,Timing,"1. Text Description of time when measurement should be taken. 2. This may be represented as an elapsed time relative to a fixed reference point, such as time of last dose. See EGTPTNUM and EGTPTREF. Examples: Start, 5 min post.",Perm
Findings,EG,33,EGTPTNUM,Planned Time Point Number,Num,,,,Timing,Numerical version of EGTPT to aid in sorting.,Perm
Findings,EG,34,EGELTM,Planned Elapsed Time from Time Point Ref,Char,,,ISO 8601,Timing,"Planned elapsed time (in ISO 8601) relative to a fixed time point reference (EGTPTREF). Not a clock time or a date time variable. Represented as an ISO 8601 duration. Examples: ""-PT15M"" to represent the period of 15 minutes prior to the reference point indicated by EGTPTREF, or ""PT8H"" to represent the period of 8 hours after the reference point indicated by EGTPTREF.",Perm
Findings,EG,35,EGTPTREF,Time Point Reference,Char,,,,Timing,"Name of the fixed reference point referred to by EGELTM, EGTPTNUM, and EGTPT. Examples: PREVIOUS DOSE, PREVIOUS MEAL.",Perm
Findings,EG,36,EGRFTDTC,Date/Time of Reference Time Point,Char,,,ISO 8601,Timing,"Date/time of the reference time point, EGTPTREF.",Perm
Findings,IE,1,STUDYID,Study Identifier,Char,,,,Identifier,Unique identifier for a study.,Req
Findings,IE,2,DOMAIN,Domain Abbreviation,Char,,IE,,Identifier,Two-character abbreviation for the domain.,Req
Findings,IE,3,USUBJID,Unique Subject Identifier,Char,,,,Identifier,Identifier used to uniquely identify a subject across all studies for all applications or submissions involving the product.,Req
Findings,IE,4,IESEQ,Sequence Number,Num,,,,Identifier,Sequence Number given to ensure uniqueness of subject records within a domain. May be any valid number.,Req
Findings,IE,5,IESPID,Sponsor-Defined Identifier,Char,,,,Identifier,Sponsor-defined reference number. Perhaps pre-printed on the CRF as an explicit line identifier or defined in the sponsor's operational database. Example: Inclusion or Exclusion criteria number from CRF.,Perm
Findings,IE,6,IETESTCD,Inclusion/Exclusion Criterion Short Name,Char,,,,Topic,"Short name of the criterion described in IETEST. The value in IETESTCD cannot be longer than 8 characters, nor can it start with a number (e.g.""1TEST""). IETESTCD cannot contain characters other than letters, numbers, or underscores. Examples: IN01, EX01.",Req
Findings,IE,7,IETEST,Inclusion/Exclusion Criterion,Char,,,,Synonym Qualifier,Verbatim description of the inclusion or exclusion criterion that was the exception for the subject within the study. IETEST cannot be longer than 200 characters.,Req
Findings,IE,8,IECAT,Inclusion/Exclusion Category,Char,C66797,,,Grouping Qualifier,Used to define a category of related records across subjects.,Req
Findings,IE,9,IESCAT,Inclusion/Exclusion Subcategory,Char,,,,Grouping Qualifier,"A further categorization of the exception criterion. Can be used to distinguish criteria for a sub-study or for to categorize as a major or minor exceptions. Examples: MAJOR, MINOR.",Perm
Findings,IE,10,IEORRES,I/E Criterion Original Result,Char,C66742,,,Result Qualifier,Original response to Inclusion/Exclusion Criterion question. Inclusion or Exclusion criterion met?,Req
Findings,IE,11,IESTRESC,I/E Criterion Result in Std Format,Char,C66742,,,Result Qualifier,Response to Inclusion/Exclusion criterion result in standard format.,Req
Findings,IE,12,VISITNUM,Visit Number,Num,,,,Timing,"1. Clinical encounter number. 2. Numeric version of VISIT, used for sorting.",Perm
Findings,IE,13,VISIT,Visit Name,Char,,,,Timing,1. Protocol-defined description of clinical encounter. 2. May be used in addition to VISITNUM and/or VISITDY.,Perm
Findings,IE,14,VISITDY,Planned Study Day of Visit,Num,,,,Timing,Planned study day of the visit based upon RFSTDTC in Demographics.,Perm
Findings,IE,15,IEDTC,Date/Time of Collection,Char,,,ISO 8601,Timing,,Perm
Findings,IE,16,IEDY,Study Day of Collection,Num,,,,Timing,"1. Study day of collection of the inclusion/exclusion exceptions, measured as integer days. 2. Algorithm for calculations must be relative to the sponsor-defined RFSTDTC variable in Demographics. This formula should be consistent across the submission.",Perm
Findings,IS,1,STUDYID,Study Identifier,Char,,,,Identifier,Unique Identifier for a study.,Req
Findings,IS,2,DOMAIN,Domain Abbreviation,Char,,IS,,Identifier,Two-character abbreviation for the domain.,Req
Findings,IS,3,USUBJID,Unique Subject Identifier,Char,,,,Identifier,Identifier used to uniquely identify a subject across a submission.,Req
Findings,IS,4,ISSEQ,Sequence Number,Char,,,,Identifier,Sequence number given to ensure uniqueness of subject records within a domain. May be any valid number.,Req
Findings,IS,5,ISGRPID,Group ID,Num,,,,Identifier,Used to tie together a block of related records in a single domain for a subject.,Perm
Findings,IS,6,ISREFID,Reference ID,Char,,,,Identifier,Internal or external specimen identifier.  Example: 458975-01.,Perm
Findings,IS,7,ISSPID,Sponsor-Defined Identifier,Char,,,,Identifier,Sponsor-defined identifier.,Perm
Findings,IS,8,ISTESTCD,Immunogenicity Test/Exam Short Name,Char,,,,Identifier,"Short name of the measurement, test, or examination described in ISTEST. It can be used as a column name when converting a dataset from a vertical to a horizontal format. The value in ISTESTCD cannot be longer than 8 characters, nor can it start with a number. ISTESTCD cannot contain characters other than letters, numbers, or underscores.  Sponsor should first check the lab terminology for the LBTEST/LBTESTCD values until CDISC attaches published controlled terminology.",Req
Findings,IS,9,ISTEST,Immunogenicity Test or Examination Name,Char,,,,Topic,Verbatim name of the test or examination used to obtain the measurement or finding. The value in ISTEST cannot be longer than 40 characters.      (Example: Immunoglobulin E). Sponsor should first check the lab terminology for the LBTEST/LBTESTCD values until CDISC attaches published controlled terminology.,Req
Findings,IS,10,ISCAT,Category for Immunogenicity Test,Char,,,,Synonym Qualifier,Used to define a category of Topic-variable values across subjects. Example: SEROLOGY,Perm
Findings,IS,11,ISSCAT,Subcategory for Immunogenicity Test,Char,,,,Grouping Qualifier,A further categorization of ISCAT.,Perm
Findings,IS,12,ISORRES,Results or Findings in Original Units,Char,,,,Result Qualifier,Results of measurement or finding as originally received or collected.,Exp
Findings,IS,13,ISORRESU,Original Units,Char,C71620,,,Variable Qualifier,"Original units in which the data were collected. The unit for ISORRES. Examples: Index Value, gpELISA, unit/mL.",Exp
Findings,IS,14,ISSTRESC,Character Results/Findings in Std. Format,Char,,,,Result Qualifier,"Contains the result value for all findings, copied or derived from ISORRES, in a standard format or in standard units.  ISSTRESC should store all results or findings in character format; if results are numeric, they should also be stored in numeric format in ISSTRESN.",Exp
Findings,IS,15,ISSTRESN,Numeric Results/Findings in Std. Units,Num,,,,Result Qualifier,Used for continuous or numeric results or findings in standard format; copied in numeric format from ISSTRESC.  ISSTRESN should store all numeric test results or findings.,Exp
Findings,IS,16,ISSTRESU,Standard Units,Char,C71620,,,Variable Qualifier,"Standardized units used for ISSTRESC and ISSTRESN. Examples: Index Value, gpELISA, unit/mL.",Exp
Findings,IS,17,ISSTAT,Completion Status,Char,C66789,,,Record Qualifier,Used to indicate a test was not done. Should be null if a result exists in ISORRES.,Perm
Findings,IS,18,ISREASND,Reason Not Done,Char,,,,Record Qualifier,Describes why a measurement or test was not performed. Used in conjunction with ISSTAT when value is NOT DONE.,Perm
Findings,IS,19,ISNAM,Vendor Name,Char,,,,Record Qualifier,Name or identifier of the laboratory or vendor who provided the test results,Perm
Findings,IS,20,ISSPEC,Specimen Type,Char,C78734,,,Record Qualifier,Defines the types of specimen used for a measurement. Example: SERUM.,Perm
Findings,IS,21,ISMETHOD,Method of Test or Examination,Char,,,,Record Qualifier,"Method of test or examination. Examples: ELISA, ELISPOT.",Perm
Findings,IS,22,ISBLFL,Baseline Flag,Char,C66742,,,Record Qualifier,Indicator used to identify a baseline value.  Should be Y or null.,Perm
Findings,IS,23,ISLLOQ,Lower Limit of Quantitation,Num,,,,Variable Qualifier,Indicates the lower limit of quantitation for an assay.  Units will be those used for ISSTRESU.,Exp
Findings,IS,24,VISITNUM,Visit Number,Num,,,,Timing,"1. Clinical encounter number.  2. Numeric version of VISIT, used for sorting.",Exp
Findings,IS,25,VISIT,Visit Name,Char,,,,Timing,1. Protocol-defined description of clinical encounter. 2. May be used in addition to VISITNUM and/or VISITDY.,Perm
Findings,IS,26,VISITDY,Planned Study Day of Visit,Num,,,,Timing,Planned study day of the visit based upon RFSTDTC in Demographics.,Perm
Findings,IS,27,ISDTC,Date/Time of Collection,Char,,,ISO 8601,Timing,Collection date and time of an observation represented in ISO 8601.,Exp
Findings,IS,28,ISDY,Study Day of Visit/Collection/Exam,Num,,,,Timing,Actual study day of visit/collection/exam expressed in integer days relative to sponsor- defined RFSTDTC in Demographics.,Perm
Findings,LB,1,STUDYID,Study Identifier,Char,,,,Identifier,Unique identifier for a study.,Req
Findings,LB,2,DOMAIN,Domain Abbreviation,Char,,LB,,Identifier,Two-character abbreviation for the domain.,Req
Findings,LB,3,USUBJID,Unique Subject Identifier,Char,,,,Identifier,Identifier used to uniquely identify a subject across all studies for all applications or submissions involving the product.,Req
Findings,LB,4,LBSEQ,Sequence Number,Num,,,,Identifier,Sequence Number given to ensure uniqueness of subject records within a domain. May be any valid number.,Req
Findings,LB,5,LBGRPID,Group ID,Char,,,,Identifier,Used to tie together a block of related records in a single domain for a subject.,Perm
Findings,LB,6,LBREFID,Specimen ID,Char,,,,Identifier,Internal or external specimen identifier. Example: Specimen ID.,Perm
Findings,LB,7,LBSPID,Sponsor-Defined Identifier,Char,,,,Identifier,Sponsor-defined reference number. Perhaps pre-printed on the CRF as an explicit line identifier or defined in the sponsor's operational database. Example: Line number on the Lab page.,Perm
Findings,LB,8,LBTESTCD,Lab Test or Examination Short Name,Char,C65047,,,Topic,"Short name of the measurement, test, or examination described in LBTEST. It can be used as a column name when converting a dataset from a vertical to a horizontal format. The value in LBTESTCD cannot be longer than 8 characters, nor can it start with a number (e.g.""1TEST""). LBTESTCD cannot contain characters other than letters, numbers, or underscores. Examples: ALT, LDH.",Req
Findings,LB,9,LBTEST,Lab Test or Examination Name,Char,C67154,,,Synonym Qualifier,"Verbatim name of the test or examination used to obtain the measurement or finding. Note any test normally performed by a clinical laboratory is considered a lab test. The value in LBTEST cannot be longer than 40 characters. Examples: Alanine Aminotransferase, Lactate Dehydrogenase.",Req
Findings,LB,10,LBCAT,Category for Lab Test,Char,,,,Grouping Qualifier,"Used to define a category of related records across subjects. Examples: such as HEMATOLOGY, URINALYSIS, CHEMISTRY.",Exp
Findings,LB,11,LBSCAT,Subcategory for Lab Test,Char,,,,Grouping Qualifier,"A further categorization of a test category such as DIFFERENTIAL, COAGULATON, LIVER FUNCTION, ELECTROLYTES.",Perm
Findings,LB,12,LBORRES,Result or Finding in Original Units,Char,,,,Result Qualifier,Result of the measurement or finding as originally received or collected.,Exp
Findings,LB,13,LBORRESU,Original Units,Char,C71620,,,Variable Qualifier,Original units in which the data were collected. The unit for LBORRES. Example: g/L.,Exp
Findings,LB,14,LBORNRLO,Reference Range Lower Limit in Orig Unit,Char,,,,Variable Qualifier,Lower end of reference range for continuous measurements in original units. Should be populated only for continuous results.,Exp
Findings,LB,15,LBORNRHI,Reference Range Upper Limit in Orig Unit,Char,,,,Variable Qualifier,Upper end of reference range for continuous measurements in original units. Should be populated only for continuous results.,Exp
Findings,LB,16,LBSTRESC,Character Result/Finding in Std Format,Char,C102580,,,Result Qualifier,"Contains the result value for all findings, copied or derived from LBORRES in a standard format or standard units. LBSTRESC should store all results or findings in character format; if results are numeric, they should also be stored in numeric format in LBSTRESN. For example, if a test has results ""NONE"", ""NEG"", and ""NEGATIVE"" in LBORRES and these results effectively have the same meaning, they could be represented in standard format in LBSTRESC as ""NEGATIVE"". For other examples, see general assumptions.",Exp
Findings,LB,17,LBSTRESN,Numeric Result/Finding in Standard Units,Num,,,,Result Qualifier,Used for continuous or numeric results or findings in standard format; copied in numeric format from LBSTRESC. LBSTRESN should store all numeric test results or findings.,Exp
Findings,LB,18,LBSTRESU,Standard Units,Char,C71620,,,Variable Qualifier,Standardized unit used for LBSTRESC or LBSTRESN.,Exp
Findings,LB,19,LBSTNRLO,Reference Range Lower Limit-Std Units,Num,,,,Variable Qualifier,Lower end of reference range for continuous measurements for LBSTRESC/LBSTRESN in standardized units. Should be populated only for continuous results.,Exp
Findings,LB,20,LBSTNRHI,Reference Range Upper Limit-Std Units,Num,,,,Variable Qualifier,Upper end of reference range for continuous measurements in standardized units. Should be populated only for continuous results.,Exp
Findings,LB,21,LBSTNRC,Reference Range for Char Rslt-Std Units,Char,,,,Variable Qualifier,"For normal range values that are character in ordinal scale or if categorical ranges were supplied (e.g., ""-1 to +1"", ""NEGATIVE TO TRACE"").",Perm
Findings,LB,22,LBNRIND,Reference Range Indicator,Char,C78736,,,Variable Qualifier,"1. Indicates where the value falls with respect to reference range defined by LBORNRLO and LBORNRHI, LBSTNRLO and LBSTNRHI, or by LBSTNRC. Examples: NORMAL, ABNORMAL, HIGH, LOW. 2. Sponsors should specify in the study metadata (Comments column in the define.xml) whether LBNRIND refers to the original or standard reference ranges and results. 3. Should not be used to indicate clinical significance.",Exp
Findings,LB,23,LBSTAT,Completion Status,Char,C66789,,,Record Qualifier,Used to indicate exam not done. Should be null if a result exists in LBORRES.,Perm
Findings,LB,24,LBREASND,Reason Test Not Done,Char,,,,Record Qualifier,"Describes why a measurement or test was not performed such as BROKEN EQUIPMENT, SUBJECT REFUSED, or SPECIMEN LOST. Used in conjunction with LBSTAT when value is NOT DONE.",Perm
Findings,LB,25,LBNAM,Vendor Name,Char,,,,Record Qualifier,The name or identifier of the laboratory that performed the test.,Perm
Findings,LB,26,LBLOINC,LOINC Code,Char,,,,Synonym Qualifier,1. Dictionary-derived LOINC Code for LBTEST. 2. The sponsor is expected to provide the dictionary name and version used to map the terms utilizing the define.xml external codelist attributes,Perm
Findings,LB,27,LBSPEC,Specimen Type,Char,C78734,,,Record Qualifier,"Defines the type of specimen used for a measurement. Examples: SERUM, PLASMA, URINE.",Perm
Findings,LB,28,LBSPCCND,Specimen Condition,Char,C78733,,,Record Qualifier,"Free or standardized text describing the condition of the specimen e.g. HEMOLYZED, ICTERIC, LIPEMIC etc.",Perm
Findings,LB,29,LBMETHOD,Method of Test or Examination,Char,C85492,,,Record Qualifier,"Method of the test or examination. Examples: EIA (Enzyme Immunoassay), ELECTROPHORESIS, DIPSTICK",Perm
Findings,LB,30,LBBLFL,Baseline Flag,Char,C66742,,,Record Qualifier,"Indicator used to identify a baseline value. The value should be ""Y"" or null.",Exp
Findings,LB,31,LBFAST,Fasting Status,Char,C66742,,,Record Qualifier,"Indicator used to identify fasting status such as Y, N, U, or null if not relevant.",Perm
Findings,LB,32,LBDRVFL,Derived Flag,Char,C66742,,,Record Qualifier,"Used to indicate a derived record. The value should be Y or null. Records that represent the average of other records, or do not come from the CRF, or are not as originally received or collected are examples of records that might be derived for the submission datasets. If LBDRVFL=Y, then LBORRES may be null, with LBSTRESC, and (if numeric) LBSTRESN having the derived value.",Perm
Findings,LB,33,LBTOX,Toxicity,Char,,,,Variable Qualifier,"Description of toxicity quantified by LBTOXGR. The sponsor is expected to provide the name of the scale and version used to map the terms, utilizing the define.xml external codelist attributes.",Perm
Findings,LB,34,LBTOXGR,Standard Toxicity Grade,Char,,,,Variable Qualifier,"Records toxicity grade value using a standard toxicity scale (such as the NCI CTCAE). If value is from a numeric scale, represent only the number (e.g., ""2"" and not ""Grade 2""). The sponsor is expected to provide the name of the scale and version used to map the terms, utilizing the define.xml external codelist attributes.",Perm
Findings,LB,35,VISITNUM,Visit Number,Num,,,,Timing,"1. Clinical encounter number.  2. Numeric version of VISIT, used for sorting.",Exp
Findings,LB,36,VISIT,Visit Name,Char,,,,Timing,1. Protocol-defined description of clinical encounter 2. May be used in addition to VISITNUM and/or VISITDY,Perm
Findings,LB,37,VISITDY,Planned Study Day of Visit,Num,,,,Timing,Planned study day of the visit based upon RFSTDTC in Demographics.,Perm
Findings,LB,38,LBDTC,Date/Time of Specimen Collection,Char,,,ISO 8601,Timing,,Exp
Findings,LB,39,LBENDTC,End Date/Time of Specimen Collection,Char,,,ISO 8601,Timing,,Perm
Findings,LB,40,LBDY,Study Day of Specimen Collection,Num,,,,Timing,"1. Study day of specimen collection, measured as integer days.  2. Algorithm for calculations must be relative to the sponsor-defined RFSTDTC variable in Demographics. This formula should be consistent across the submission.",Perm
Findings,LB,41,LBTPT,Planned Time Point Name,Char,,,,Timing,"1. Text Description of time when specimen should be taken.  2. This may be represented as an elapsed time relative to a fixed reference point, such as time of last dose. See LBTPTNUM and LBTPTREF. Examples: Start, 5 min post.",Perm
Findings,LB,42,LBTPTNUM,Planned Time Point Number,Num,,,,Timing,Numerical version of LBTPT to aid in sorting.,Perm
Findings,LB,43,LBELTM,Planned Elapsed Time from Time Point Ref,Char,,,ISO 8601,Timing,"Planned Elapsed time (in ISO 8601) relative to a planned fixed reference (LBTPTREF). This variable is useful where there are repetitive measures. Not a clock time or a date time variable. Represented as an ISO 8601 duration. Examples: ""-PT15M"" to represent the period of 15 minutes prior to the reference point indicated by LBTPTREF, or ""PT8H"" to represent the period of 8 hours after the reference point indicated by LBTPTREF.",Perm
Findings,LB,44,LBTPTREF,Time Point Reference,Char,,,,Timing,"Name of the fixed reference point referred to by LBELTM, LBTPTNUM, and LBTPT. Examples: PREVIOUS DOSE, PREVIOUS MEAL.",Perm
Findings,LB,45,LBRFTDTC,Date/Time of Reference Time Point,Char,,,ISO 8601,Timing,"Date/time of the reference time point, LBTPTREF.",Perm
Findings,MB,1,STUDYID,Study Identifier,Char,,,,Identifier,Unique identifier for a study.,Req
Findings,MB,2,DOMAIN,Domain Abbreviation,Char,,MB,,Identifier,Two-character abbreviation for the domain.,Req
Findings,MB,3,USUBJID,Unique Subject Identifier,Char,,,,Identifier,Identifier used to uniquely identify a subject across all studies for all applications or submissions involving the product.,Req
Findings,MB,4,MBSEQ,Sequence Number,Num,,,,Identifier,Sequence Number given to ensure uniqueness of subject records within a domain. May be any valid number.,Req
Findings,MB,5,MBGRPID,Group ID,Char,,,,Identifier,"Used to tie together a block of related records in a single domain to support relationships within the domain and between domains. In MB, used to link to findings about organisms which are stored in MS.",Exp
Findings,MB,6,MBREFID,Reference ID,Char,,,,Identifier,Internal or external specimen identifier. Example: Specimen ID,Perm
Findings,MB,7,MBSPID,Sponsor-Defined Identifier,Char,,,,Identifier,"Sponsor-defined reference number. Perhaps pre-printed on the CRF as an explicit line identifier or defined in the sponsor's operational database. Example: ORGANISM IDENTIFIER. For organism identification, MBSPID would remain the same each time the same organism is identified in a new specimen.",Perm
Findings,MB,8,MBTESTCD,Microbiology Test or Finding Short Name,Char,,,,Topic,"Short name of the measurement, test, or finding described in MBTEST. It can be used as a column name when converting a dataset from a vertical to a horizontal format. The value in MBTESTCD cannot be longer than 8 characters, nor can it start with a number (e.g., ""1TEST""). MBTESTCD cannot contain characters other than letters, numbers, or underscores. Examples for GRAM STAIN findings: GMNROD, GMNCOC, GMSQEPCE, GMPMNLOW. Examples for CULTURE PLATE findings: ORGANISM.",Req
Findings,MB,9,MBTEST,Microbiology Test or Finding Name,Char,,,,Synonym Qualifier,"Verbatim name of the test or examination used to obtain the measurement or finding. The value in MBTEST cannot be longer than 40 characters. Examples: GRAM NEGATIVE RODS, GRAM NEGATIVE COCCI, SQUAMOUS EPITHELIAL CELLS, PMN PER FIELD LOW, ORGANISM PRESENT",Req
Findings,MB,10,MBCAT,Category for Microbiology Finding,Char,,,,Grouping Qualifier,Used to define a category of related records.,Perm
Findings,MB,11,MBSCAT,Subcategory for Microbiology Finding,Char,,,,Grouping Qualifier,Used to define a further categorization of MBCAT.,Perm
Findings,MB,12,MBORRES,Result or Finding in Original Units,Char,,,,Result Qualifier,"Result of the Microbiology measurement or finding as originally received or collected. Examples for GRAM STAIN findings: +3 MODERATE, +2 FEW, <10. Examples for CULTURE PLATE (ORGANISM) findings: KLEBSIELLA PNEUMONIAE, STREPTOCOCCUS PNEUMONIAE.",Exp
Findings,MB,13,MBORRESU,Original Units,Char,C71620,,,Variable Qualifier,Original unit for MBORRES. Example: mcg/mL,Perm
Findings,MB,14,MBSTRESC,Character Result/Finding in Std Format,Char,,,,Result Qualifier,"Contains the result value for all findings, copied or derived from MBORRES in a standard format or standard units. MBSTRESC should store all results or findings in character format; if results are numeric, they should also be stored in numeric format in MBSTRESN. For example, if a test has results ""+3 MODERATE"", ""MOD"", and ""MODERATE"" in MBORRES and these results effectively have the same meaning, they could be represented in standard format in MBSTRESC as ""MODERATE"".",Exp
Findings,MB,15,MBSTRESN,Numeric Result/Finding in Standard Units,Num,,,,Result Qualifier,Used for continuous or numeric results or findings in standard format; copied in numeric format from MBSTRESC. MBSTRESN should store all numeric test results or findings.,Perm
Findings,MB,16,MBSTRESU,Standard Units,Char,C71620,,,Variable Qualifier,Standardized unit used for MBSTRESC and MBSTRESN.,Perm
Findings,MB,17,MBRESCAT,Result Category,Char,,,,Variable Qualifier,"Used to categorize the result of a finding in a standard format. Example for ORGANISM finding: INFECTING, COLONIZER, CONTAMINANT, or NORMAL FLORA.",Exp
Findings,MB,18,MBSTAT,Completion Status,Char,C66789,,,Record Qualifier,"Used to indicate Microbiology was not done, or a test was not done. Should be null or have a value of NOT DONE.",Perm
Findings,MB,19,MBREASND,Reason Microbiology Not Performed,Char,,,,Record Qualifier,Reason not done. Used in conjunction with MBSTAT when value is NOT DONE. Examples: BROKEN EQUIPMENT or SUBJECT REFUSED.,Perm
Findings,MB,20,MBNAM,Vendor Name,Char,,,,Record Qualifier,Name or identifier of the laboratory or vendor who provides the test results.,Perm
Findings,MB,21,MBLOINC,LOINC Code,Char,,,,Synonym Qualifier,1. Dictionary-derived LOINC Code for MBTEST. 2. The sponsor is expected to provide the dictionary name and version used to map the terms utilizing the define.xml external codelist attributes,Perm
Findings,MB,22,MBSPEC,Specimen Type,Char,C78734,,,Record Qualifier,"Defines the type of specimen used for a measurement. Examples: SPUTUM, BLOOD, PUS.",Perm
Findings,MB,23,MBSPCCND,Specimen Condition,Char,C78733,,,Record Qualifier,Free or standardized text describing the condition of the specimen. Example: CONTAMINATED.,Perm
Findings,MB,24,MBLOC,Specimen Collection Location,Char,C74456,,,Record Qualifier,"Location relevant to the collection of the measurement. Examples: LUNG, VEIN, ARM, FOOT",Perm
Findings,MB,25,MBMETHOD,Method of Test or Examination,Char,C85492,,,Record Qualifier,"Method of the test or examination. Example: GRAM STAIN, MACRO BROTH DILUTION, AGAR DILUTION",Exp
Findings,MB,26,MBBLFL,Baseline Flag,Char,C66742,,,Record Qualifier,"Indicator used to identify a baseline value. The value should be ""Y"" or null.",Perm
Findings,MB,27,MBDRVFL,Derived Flag,Char,C66742,,,Record Qualifier,"Used to indicate a derived record. The value should be Y or null. Records that represent the average of other records or some other derivation, and those that do not come from the CRF, are examples of records that would be derived for the submission datasets. If MBDRVFL=Y, then MBORRES may be null with MBSTRESC and (if numeric) MBSTRESN having the derived value.",Perm
Findings,MB,28,VISITNUM,Visit Number,Num,,,,Timing,"1. Clinical encounter number. 2. Numeric version of VISIT, used for sorting.",Exp
Findings,MB,29,VISIT,Visit Name,Char,,,,Timing,1. Protocol-defined description of clinical encounter. 2. May be used in addition to VISITNUM and/or VISITDY.,Perm
Findings,MB,30,VISITDY,Planned Study Day of Visit,Num,,,,Timing,Planned study day of the visit based upon RFSTDTC in Demographics.,Perm
Findings,MB,31,MBDTC,Date/Time of Specimen Collection,Char,,,ISO 8601,Timing,,Exp
Findings,MB,32,MBDY,Study Day of MB Specimen Collection,Num,,,,Timing,"1. Study day of the specimen collection, measured as integer days. 2. Algorithm for calculations must be relative to the sponsor-defined RFSTDTC variable in Demographics. This formula should be consistent across the submission.",Perm
Findings,MB,33,MBTPT,Planned Time Point Name,Char,,,,Timing,"1. Text Description of time when specimen should be taken. 2. This may be represented as an elapsed time relative to a fixed reference point, such as time of last dose. See MBTPTNUM and MBTPTREF. Examples: Start, 5 min post.",Perm
Findings,MB,34,MBTPTNUM,Planned Time Point Number,Num,,,,Timing,Numerical version of MBTPT to aid in sorting.,Perm
Findings,MB,35,MBELTM,Planned Elapsed Time from Time Point Ref,Char,,,ISO 8601,Timing,"Planned elapsed time (in ISO 8601) relative to a planned fixed reference (MBTPTREF). This variable is useful where there are repetitive measures. Not a clock time or a date time variable. Represented as an ISO 8601 duration. Examples: ""-PT15M"" to represent the period of 15 minutes prior to the reference point indicated by MBTPTREF, or ""PT8H"" to represent the period of 8 hours after the reference point indicated by MBTPTREF.",Perm
Findings,MB,36,MBTPTREF,Time Point Reference,Char,,,,Timing,"Name of the fixed reference point referred to by MBELTM, MBTPTNUM, and MBTPT. Example: PREVIOUS DOSE.",Perm
Findings,MB,37,MBRFTDTC,Date/Time of Reference Time Point,Char,,,ISO 8601,Timing,"Date/time of the reference time point, MBTPTREF.",Perm
Findings,MS,1,STUDYID,Study Identifier,Char,,,,Identifier,Unique identifier for a study.,Req
Findings,MS,2,DOMAIN,Domain Abbreviation,Char,,MS,,Identifier,Two-character abbreviation for the domain.,Req
Findings,MS,3,USUBJID,Unique Subject Identifier,Char,,,,Identifier,Identifier used to uniquely identify a subject across all studies for all applications or submissions involving the product.,Req
Findings,MS,4,MSSEQ,Sequence Number,Num,,,,Identifier,Sequence Number given to ensure uniqueness of subject records within a domain. May be any valid number.,Req
Findings,MS,5,MSGRPID,Group ID,Char,,,,Identifier,"Used to tie together a block of related records in a single domain to support relationships within the domain and between domains. In MS, used to link to organism in MB.",Req
Findings,MS,6,MSREFID,Reference ID,Char,,,,Identifier,Internal or external specimen identifier. Example: Specimen ID.,Perm
Findings,MS,7,MSSPID,Sponsor-Defined Identifier,Char,,,,Identifier,Sponsor-defined reference number. Perhaps pre-printed on the CRF as an explicit line identifier or defined in the sponsor's operational database.,Perm
Findings,MS,8,MSTESTCD,Microbiology Organism Finding Short Name,Char,,,,Topic,"Short name of the measurement, test, or finding described in MSTEST. It can be used as a column name when converting a dataset from a vertical to a horizontal format. The value in MSTESTCD cannot be longer than 8 characters, nor can it start with a number (e.g.""1TEST). MSTESTCD cannot contain characters other than letters, numbers, or underscores. Examples for GROWTH findings: EXTGROW, COLCOUNT. For SUSCEPTIBILITY findings, the test is the drug the organism was tested with, i.e. PENICLLN, AMOXCLLN.",Req
Findings,MS,9,MSTEST,Organism Test or Finding Name,Char,,,,Synonym Qualifier,"Verbatim name of the test or examination used to obtain the measurement or finding. Examples for GROWTH findings: Extent of Growth, Colony Count. Examples for SUSCEPTIBILITY findings: Amoxicillin Susceptibility, Penicillin Susceptibility",Req
Findings,MS,10,MSCAT,Category for Organism Findings,Char,,,,Grouping Qualifier,"Used to define a category of related records. Examples: GROWTH, SUSCEPTIBILITY.",Req
Findings,MS,11,MSSCAT,Subcategory for Organism Findings,Char,,,,Grouping Qualifier,"A further categorization of a test category. Examples: CULTURE, ISOLATE",Perm
Findings,MS,12,MSORRES,Result or Finding in Original Units,Char,,,,Result Qualifier,"Result of the Microbiology Organism measurement or finding as originally received or collected. Examples for GROWTH findings: GROWTH INTO 3RD QUADRANT. Examples for SUSCEPTIBLITY findings:.0080,.0023",Exp
Findings,MS,13,MSORRESU,Original Units,Char,C71620,,,Variable Qualifier,Original units in which the data were collected. The unit for MSORRES. Example: mcg/mL,Exp
Findings,MS,14,MSSTRESC,Character Result/Finding in Std Format,Char,,,,Result Qualifier,"Contains the result value for all findings, copied or derived from MSORRES in a standard format or standard units. MSSTRESC should store all results or findings in character format; if results are numeric, they should also be stored in numeric format in MSSTRESN. For example, if a test has results ""+3 MODERATE"", ""MOD"", and ""MODERATE"", and in MSORRES and these results effectively have the same meaning, they could be represented in standard format in MSSTRESC as ""MODERATE"".",Exp
Findings,MS,15,MSSTRESN,Numeric Result/Finding in Standard Units,Num,,,,Result Qualifier,Used for continuous or numeric results or findings in standard format; copied in numeric format from MSSTRESC. MSSTRESN should store all numeric test results or findings.,Exp
Findings,MS,16,MSSTRESU,Standard Units,Char,C71620,,,Variable Qualifier,Standardized unit used for MSSTRESC and MSSTRESN.,Exp
Findings,MS,17,MSRESCAT,Result Category,Char,C85495,,,Variable Qualifier,"Used to categorize the result of a finding in a standard format. Example for SUSCEPTIBILITY finding: SUSCEPTIBLE, INTERMEDIATE, RESISTANT, or UNKNOWN.",Exp
Findings,MS,18,MSSTAT,Completion Status,Char,C66789,,,Record Qualifier,"Used to indicate a test on an organism was not done, or a test was not performed. Should be null if a result exists in MSORRES or have a value of NOT DONE.",Perm
Findings,MS,19,MSREASND,Reason Test Not Done,Char,,,,Record Qualifier,Reason not done. Describes why a measurement or test was not performed. Used in conjunction with MSSTAT when value is NOT DONE. Example: SAMPLE LOST,Perm
Findings,MS,20,MSNAM,Vendor Name,Char,,,,Record Qualifier,Name or identifier of the laboratory or vendor that provided the test results.,Perm
Findings,MS,21,MSLOINC,LOINC Code,Char,,,,Synonym Qualifier,1. Dictionary-derived LOINC Code for MSTEST. 2. The sponsor is expected to provide the dictionary name and version used to map the terms utilizing the define.xml external codelist attributes,Perm
Findings,MS,22,MSMETHOD,Method of Test or Examination,Char,C85492,,,Record Qualifier,"Method of the test or examination. Example: GRAM STAIN, MACRO BROTH DILUTION, AGAR DILUTION",Exp
Findings,MS,23,MSBLFL,Baseline Flag,Char,C66742,,,Record Qualifier,"Indicator used to identify a baseline value. The value should be ""Y"" or null.",Perm
Findings,MS,24,MSDRVFL,Derived Flag,Char,C66742,,,Record Qualifier,"Used to indicate a derived record. The value should be Y or null. Records that represent the average of other records or some other derivation, and those that do not come from the CRF, are examples of records that would be derived for the submission datasets. If MSDRVFL=Y, then MSORRES may be null, with MSSTRESC and (if numeric) MSSTRESN having the derived value.",Perm
Findings,MS,25,VISITNUM,Visit Number,Num,,,,Timing,"1. Clinical encounter number. 2. Numeric version of VISIT, used for sorting.",Exp
Findings,MS,26,VISIT,Visit Name,Char,,,,Timing,1. Protocol-defined description of clinical encounter. 2. May be used in addition to VISITNUM and/or VISITDY.,Perm
Findings,MS,27,VISITDY,Planned Study Day of Visit,Num,,,,Timing,Planned study day of the visit based upon RFSTDTC in Demographics.,Perm
Findings,MS,28,MSDTC,Date/Time of Test,Char,,,ISO 8601,Timing,,Perm
Findings,MS,29,MSDY,Study Day of Test,Num,,,,Timing,"1. Study day of the test, measured as integer days. 2. Algorithm for calculations must be relative to the sponsor-defined RFSTDTC variable in Demographics. This formula should be consistent across the submission.",Perm
Findings,MS,30,MSTPT,Planned Time Point Name,Char,,,,Timing,"1. Text Description of time when test should be done.  2. This may be represented as an elapsed time relative to a fixed reference point, such as time of last dose. See MSTPTNUM and MSTPTREF. Examples: Start, 5 min post.",Perm
Findings,MS,31,MSTPTNUM,Planned Time Point Number,Num,,,,Timing,Numerical version of MSTPT to aid in sorting.,Perm
Findings,MS,32,MSELTM,Planned Elapsed Time from Time Point Ref,Char,,,ISO 8601,Timing,"Elapsed time (in ISO 8601) relative to a planned fixed reference (MSTPTREF). This variable is useful where there are repetitive measures. Not a clock time or a date time variable. Examples: ""-PT15M"" to represent the period of 15 minutes prior to the reference point indicated by MSTPTREF, or ""P8H"" to represent the period of 8 hours after the reference point indicated by MSTPTREF.",Perm
Findings,MS,33,MSTPTREF,Time Point Reference,Char,,,,Timing,"Name of the fixed reference point referred to by MSELTM, MSTPTNUM, and MSTPT. Example: PREVIOUS DOSE.",Perm
Findings,MI,1,STUDYID,Study Identifier,Char,,,,Identifier,Unique identifier for a study.,Req
Findings,MI,2,DOMAIN,Domain Abbreviation,Char,,MI,,Identifier,Two-character abbreviation for the domain.,Req
Findings,MI,3,USUBJID,Unique Subject Identifier,Char,,,,Identifier,Identifier used to uniquely identify a subject across all studies for all applications or submissions involving the product.,Req
Findings,MI,4,MISEQ,Sequence Number,Num,,,,Identifier,Sequence number given to ensure uniqueness of subject records within a domain. May be any valid number.,Req
Findings,MI,5,MIGRPID,Group ID,Char,,,,Identifier,Used to tie together a block of related records in a single domain for a subject. This is not the treatment group number.,Perm
Findings,MI,6,MIREFID,Reference ID,Char,,,,Identifier,Internal or external specimen identifier. Example: Specimen barcode number.,Perm
Findings,MI,7,MISPID,Sponsor-Defined Identifier,Char,,,,Identifier,Sponsor-defined reference number. Perhaps pre-printed on the CRF as an explicit line identifier or defined in the sponsor's operational database. Example: Line number from the MI Findings page.,Perm
Findings,MI,8,MITESTCD,Microscopic Examination Short Name,Char,C89974,,,Topic,"Short name of the measurement, test, or examination described in MITEST. It can be used as a column name when converting a dataset from a vertical to a horizontal format. The value in MITESTCD cannot be longer than 8 characters, nor can it start with a number (e.g., ""1TEST"" is not valid). MITESTCD cannot contain characters other than letters, numbers, or underscores. Examples: HER2, BRCA1, TTF1.",Req
Findings,MI,9,MITEST,Microscopic Examination Name,Char,C89973,,,Synonym Qualifier,"Verbatim name of the test or examination used to obtain the measurement or finding. The value in MITEST cannot be longer than 40 characters. Examples: Human Epidermal Growth Factor Receptor 2, Breast Cancer Susceptibility Gene 1, Thyroid Transcription Factor 1.",Req
Findings,MI,10,MITSTDTL,Microscopic Examination Detail,Char,,,,Record Qualifier,"Further description of the test performed in producing the MI result. This would be used to represent specific attributes, such as intensity score or percentage of cells displaying presence of the biomarker or compound",Perm
Findings,MI,11,MICAT,Category for Microscopic Finding,Char,,,,Grouping Qualifier,Used to define a category of related records.,Perm
Findings,MI,12,MISCAT,Subcategory for Microscopic Finding,Char,,,,Grouping Qualifier,Used to define a further categorization of MICAT.,Perm
Findings,MI,13,MIORRES,Result or Finding in Original Units,Char,,,,Result Qualifier,Result of the histopathology measurement or finding as originally received or collected.,Exp
Findings,MI,14,MIORRESU,Original Units,Char,C71620,,,Variable Qualifier,Original unit for MIORRES.,Perm
Findings,MI,15,MISTRESC,Character Result/Finding in Standard Format,Char,,,,Result Qualifier,"Contains the result value for all findings, copied or derived from MIORRES in a standard format or standard units. MISTRESC should store all results or findings in character format; if results are numeric, they should also be stored in numeric format in MISTRESN.",Exp
Findings,MI,16,MISTRESN,Numeric Result/Finding in Standard Units,Num,,,,Result Qualifier,Used for continuous or numeric results or findings in standard format; copied in numeric format from MISTRESC. MISTRESN should store all numeric test results or findings.,Perm
Findings,MI,17,MISTRESU,Standard Units,Char,C71620,,,Variable Qualifier,Standardized unit used for MISTRESC and MISTRESN.,Perm
Findings,MI,18,MIRESCAT,Result Category,Char,,,,Result Qualifier,Used to categorize the result of a finding.  Examples: MALIGNANT or BENIGN for tumor findings.,Perm
Findings,MI,19,MISTAT,Completion Status,Char,C66789,,,Record Qualifier,Used to indicate examination not done or result is missing. Should be null if a result exists in MIORRES or have a value of NOT DONE when MIORRES=NULL.,Perm
Findings,MI,20,MIREASND,Reason Not Done,Char,,,,Record Qualifier,"Reason not done. Used in conjunction with MISTAT when value is NOT DONE. Examples: SAMPLE AUTOLYZED, SPECIMEN LOST.",Perm
Findings,MI,21,MINAM,Laboratory/Vendor Name,Char,,,,Record Qualifier,"Name or identifier of the vendor (e.g., laboratory) that provided the test results.",Perm
Findings,MI,22,MISPEC,Specimen Material Type,Char,C78734,,,Record Qualifier,"Subject of the observation. Defines the type of specimen used for a measurement. Examples: TISSUE, BLOOD, BONE MARROW.",Req
Findings,MI,23,MISPCCND,Specimen Condition,Char,C78733,,,Variable Qualifier,Free or standardized text describing the condition of the specimen. Example: AUTOLYZED.,Exp
Findings,MI,24,MILOC,Specimen Collection Location,Char,C74456,,,Record Qualifier,"Location relevant to the collection of the specimen. Examples: LUNG, KNEE JOINT, ARM, THIGH.",Perm
Findings,MI,25,MILAT,Specimen Laterality within Subject,Char,C99073,,,Variable Qualifier,"Qualifier for laterality of the location of the specimen in MILOC. Examples: LEFT, RIGHT, BILATERAL.",Perm
Findings,MI,26,MIDIR,Specimen Directionality within Subject,Char,C99074,,,Variable Qualifier,"Qualifier for directionality of the location of the specimen in MILOC. Examples: DORSAL, PROXIMAL.",Perm
Findings,MI,27,MIMETHOD,Method of Test or Examination,Char,C85492,,,Record Qualifier,"Method of the test or examination. This could include the technique or type of staining used for the slides. Examples: IHC, Crystal Violet, Safranin, Trypan Blue, or Propidium Iodide.",Perm
Findings,MI,28,MIBLFL,Baseline Flag,Char,C66742,,,Record Qualifier,"Indicator used to identify a baseline value. The value should be ""Y"" or null.",Exp
Findings,MI,29,MIEVAL,Evaluator,Char,C78735,,,Record Qualifier,"Role of the person who provided the evaluation. Example: PATHOLOGIST, PEER REVIEW, SPONSOR PATHOLOGIST.",Perm
Findings,MI,30,VISITNUM,Visit Number,Num,,,,Timing,"1. Clinical encounter number. 2. Numeric version of VISIT, used for sorting.",Exp
Findings,MI,31,VISIT,Visit Name,Char,,,,Timing,1. Protocol-defined description of clinical encounter. 2. May be used in addition to VISITNUM and/or VISITDY.,Perm
Findings,MI,32,VISITDY,Planned Study Day of Visit,Num,,,,Timing,Planned study day of the visit based upon RFSTDTC in Demographics.,Perm
Findings,MI,33,MIDTC,Date/Time of Specimen Collection,Char,,,ISO 8601,Timing,"Date/time of specimen collection, in ISO 8601 format.",Exp
Findings,MI,34,MIDY,Study Day of Specimen Collection,Num,,,,Timing,"Study day of specimen collection, in integer days. The algorithm for calculations must be relative to the sponsor-defined RFSTDTC variable in the Demographics (DM) domain.",Perm
Findings,MO,1,STUDYID,Study Identifier,Char,,,,Identifier,Unique identifier for a study.,Req
Findings,MO,2,DOMAIN,Domain Abbreviation,Char,,MO,,Identifier,Two-character abbreviation for the domain.,Req
Findings,MO,3,USUBJID,Unique Subject Identifier,Char,,,,Identifier,Identifier used to uniquely identify a subject across all studies for all applications or submissions involving the product.,Req
Findings,MO,4,MOSEQ,Sequence Number,Num,,,,Identifier,Sequence Number given to ensure uniqueness of subject records within a domain. May be any valid number.,Req
Findings,MO,5,MOGRPID,Group ID,Char,,,,Identifier,Used to tie together a block of related records in a single domain for a subject.,Perm
Findings,MO,6,MOREFID,Reference ID,Char,,,,Identifier,Internal or external procedure identifier.,Perm
Findings,MO,7,MOSPID,Sponsor-Defined Identifier,Char,,,,Identifier,Sponsor-defined reference number. Perhaps pre-printed on the CRF as an explicit line identifier or defined in the sponsor's operational database. Example: Line number from the procedure or test page.,Perm
Findings,MO,8,MOLNKID,Link ID,Char,,,,Identifier,Identifier used to link results of a procedure to the procedure performed.,Perm
Findings,MO,9,MOTESTCD,Test or Examination Short Name,Char,C114117,,,Topic,"Short name of the measurement, test, or examination described in MOTEST. It can be used as a column name when converting a dataset from a vertical to a horizontal format. The value in MOTESTCD cannot be longer than 8 characters, nor can it start with a number (e.g., ""1TEST""). MOTESTCD cannot contain characters other than letters, numbers, or underscores. Examples: VOLUME, INTP",Req
Findings,MO,10,MOTEST,Test or Examination Name,Char,C114116,,,Synonym Qualifier,"Verbatim name of the test or examination used to obtain the measurement or finding. The value in MOTEST cannot be longer than 40 characters. Examples: Volume, Interpretation",Req
Findings,MO,11,MOCAT,Category for Test,Char,,,,Grouping Qualifier,Used to categorize observations across subjects.,Perm
Findings,MO,12,MOSCAT,Subcategory for Test,Char,,,,Grouping Qualifier,A further categorization.,Perm
Findings,MO,13,MOPOS,Position of Subject,Char,C71148,,,Record Qualifier,"Position of the subject during a measurement or examination. Examples: SUPINE, STANDING, SITTING.",Perm
Findings,MO,14,MOORRES,Result or Finding in Original Units,Char,,,,Result Qualifier,Result of the procedure measurement or finding as originally received or collected.,Exp
Findings,MO,15,MOORRESU,Original Units,Char,C71620,,,Variable Qualifier,Original units in which the data were collected. The unit for MOORRES.,Perm
Findings,MO,16,MOSTRESC,Character Result/Finding in Std Format,Char,,,,Result Qualifier,"Contains the result value for all findings, copied or derived from MOORRES in a standard format or standard units. MOSTRESC should store all results or findings in character format; if results are numeric, they should also be stored in numeric format in MOSTRESN.",Exp
Findings,MO,17,MOSTRESN,Numeric Result/Finding in Standard Units,Num,,,,Result Qualifier,Used for continuous or numeric results or findings in standard format; copied in numeric format from MOSTRESC. MOSTRESN should store all numeric test results or findings.,Perm
Findings,MO,18,MOSTRESU,Standard Units,Char,C71620,,,Variable Qualifier,Standardized unit used for MOSTRESC or MOSTRESN.,Perm
Findings,MO,19,MOSTAT,Completion Status,Char,C66789,,,Record Qualifier,"Used to indicate a test was not done, or a measurement was not taken. Should be null if a result exists in MOORRES.",Perm
Findings,MO,20,MOREASND,Reason Test Not Performed,Char,,,,Record Qualifier,Describes why a measurement or test was not performed. Examples: BROKEN EQUIPMENT or SUBJECT REFUSED. Used in conjunction with MOSTAT when value is NOT DONE.,Perm
Findings,MO,21,MOXFN,External File Path,Char,,,,Record Qualifier,File path to the external file.,Perm
Findings,MO,22,MONAM,Vendor Name,Char,,,,Record Qualifier,Name or identifier of the laboratory or vendor who provided the test results.,Perm
Findings,MO,23,MOLOC,Location Used for Measurement,Char,C74456,,,Record Qualifier,"Location relevant to the collection of the measurement. Examples: BRAIN, KIDNEY, LIVER. etc.",Perm
Findings,MO,24,MOLAT,Specimen Laterality within Subject,Char,C99073,,,Variable Qualifier,"Qualifier for laterality of the specimen within the subject for paired specimens.  Examples: LEFT, RIGHT, BILATERAL.",Perm
Findings,MO,25,MODIR,Specimen Directionality within Subject,Char,C99074,,,Variable Qualifier,"Qualifier for directionality of the specimen within the subject.  Examples: DORSAL, PROXIMAL.",Perm
Findings,MO,26,MOPORTOT,Portion or Totality,Char,C99075,,,Variable Qualifier,"Qualifier for anatomical location or specimen further detailing the portion of totality which means arrangement of, or apportioning of. Examples: ENTIRE, PARTIAL",Perm
Findings,MO,27,MOMETHOD,Method of Procedure Test,Char,C85492,,,Record Qualifier,Method of the test or examination result.,Perm
Findings,MO,28,MOANMETH,Analysis Method,Char,,,,Record Qualifier,Analysis method applied to obtain a summarized result. Examples: STEREOLOGY,Perm
Findings,MO,29,MOBLFL,Baseline Flag,Char,C66742,,,Record Qualifier,"Indicator used to identify a baseline value. The value should be ""Y"" or null.",Exp
Findings,MO,30,MODRVFL,Derived Flag,Char,C66742,,,Record Qualifier,"Used to indicate a derived record. The value should be Y or null. Records that represent the average of other records, or that do not come from the CRF, or are not as originally collected or received are examples of records that would be derived for the submission datasets. If MODRVFL=Y, then MOORRES could be null, and (if numeric) MOSTRESN having the derived value.",Perm
Findings,MO,31,MOEVAL,Evaluator,Char,C78735,,,Record Qualifier,"Role of the person who provided the evaluation. Used only for results that are subjective (e.g., assigned by a person or a group). Should be null for records that contain collected or derived data. Examples: INVESTIGATOR, ADJUDICATION COMMITTEE, VENDOR.",Perm
Findings,MO,32,VISITNUM,Visit Number,Num,,,,Timing,"1. Clinical encounter number. 2. Numeric version of VISIT, used for sorting.",Exp
Findings,MO,33,VISIT,Visit Name,Char,,,,Timing,1. Protocol-defined description of clinical encounter. 2. May be used in addition to VISITNUM and/or VISITDY.,Perm
Findings,MO,34,VISITDY,Planned Study Day of Visit,Num,,,,Timing,Planned study day of the visit based upon RFSTDTC in Demographics.,Perm
Findings,MO,35,MODTC,Date/Time of Test,Char,,,ISO 8601,Timing,Date of test.,Exp
Findings,MO,36,MODY,Study Day of Test,Num,,,,Timing,"1. Study day of the procedure or test, measured as integer days. 2. Algorithm for calculations must be relative to the sponsor-defined RFSTDTC variable in Demographics.",Perm
Findings,MO,37,MOTPT,Planned Time Point Name,Char,,,,Timing,"1. Text Description of time when measurement should be taken. 2. This may be represented as an elapsed time relative to a fixed reference point, such as time of last dose. See MOTPTNUM and MOTPTREF. Examples: Start, 5 min post.",Perm
Findings,MO,38,MOTPTNUM,Planned Time Point Number,Num,,,,Timing,Numerical version of MOTPT to aid in sorting.,Perm
Findings,MO,39,MOELTM,Planned Elapsed Time from Time Point Ref,Char,,,ISO 8601,Timing,"Planned elapsed time (in ISO 8601) relative to a fixed time point reference (MOTPTREF). Not a clock time or a date time variable. Represented as an ISO 8601 duration. Examples: ""-PT15M"" to represent the period of 15 minutes prior to the reference point indicated by MOTPTREF, or ""PT8H"" to represent the period of 8 hours after the reference point indicated by MOTPTREF.",Perm
Findings,MO,40,MOTPTREF,Time Point Reference,Char,,,,Timing,"Name of the fixed reference point referred to by MOELTM, MOTPTNUM, and MOTPT. Examples: PREVIOUS DOSE, PREVIOUS MEAL.",Perm
Findings,MO,41,MORFTDTC,Date/Time of Reference Time Point,Char,,,ISO 8601,Timing,"Date/time of the reference time point, MOTPTREF.",Perm
Findings,PC,1,STUDYID,Study Identifier,Char,,,,Identifier,Unique identifier for a study.,Req
Findings,PC,2,DOMAIN,Domain Abbreviation,Char,,PC,,Identifier,Two-character abbreviation for the domain.,Req
Findings,PC,3,USUBJID,Unique Subject Identifier,Char,,,,Identifier,Unique subject identifier within the submission.,Req
Findings,PC,4,PCSEQ,Sequence Number,Num,,,,Identifier,Sequence Number given to ensure uniqueness of subject records within a domain. May be any valid number.,Req
Findings,PC,5,PCGRPID,Group ID,Char,,,,Identifier,Used to tie together a block of related records in a single domain to support relationships within the domain and between domains.,Perm
Findings,PC,6,PCREFID,Reference ID,Char,,,,Identifier,Internal or external specimen identifier. Example: Specimen ID.,Perm
Findings,PC,7,PCSPID,Sponsor-Defined Identifier,Char,,,,Identifier,Sponsor-defined reference number.,Perm
Findings,PC,8,PCTESTCD,Pharmacokinetic Test Short Name,Char,,,,Topic,"Short name of the analyte or specimen characteristic. It can be used as a column name when converting a dataset from a vertical to a horizontal format. The value in PCTESTCD cannot be longer than 8 characters, nor can it start with a number (e.g., ""1TEST""). PCTESTCD cannot contain characters other than letters, numbers, or underscores. Examples: ASA, VOL, SPG.",Req
Findings,PC,9,PCTEST,Pharmacokinetic Test Name,Char,,,,Synonym Qualifier,"Name of the analyte or specimen characteristic. Note any test normally performed by a clinical laboratory is considered a lab test. The value in PCTEST cannot be longer than 40 characters. Examples: Acetylsalicylic Acid, Volume, Specific Gravity.",Req
Findings,PC,10,PCCAT,Test Category,Char,,,,Grouping Qualifier,"Used to define a category of related records. Examples: ANALYTE, SPECIMEN PROPERTY.",Perm
Findings,PC,11,PCSCAT,Test Subcategory,Char,,,,Grouping Qualifier,A further categorization of a test category.,Perm
Findings,PC,12,PCORRES,Result or Finding in Original Units,Char,,,,Result Qualifier,Result of the measurement or finding as originally received or collected.,Exp
Findings,PC,13,PCORRESU,Original Units,Char,C71620,,,Variable Qualifier,Original units in which the data were collected. The unit for PCORRES. Example: mg/L.,Exp
Findings,PC,14,PCSTRESC,Character Result/Finding in Standard Format,Char,,,,Result Qualifier,"Contains the result value for all findings, copied or derived from PCORRES in a standard format or standard units. PCSTRESC should store all results or findings in character format; if results are numeric, they should also be stored in numeric format in PCSTRESN. For example, if a test has results ""NONE"", ""NEG"", and ""NEGATIVE"" in PCORRES and these results effectively have the same meaning, they could be represented in standard format in PCSTRESC as ""NEGATIVE"". For other examples, see general assumptions.",Exp
Findings,PC,15,PCSTRESN,Numeric Result/Finding in Standard Units,Num,,,,Result Qualifier,Used for continuous or numeric results or findings in standard format; copied in numeric format from PCSTRESC. PCSTRESN should store all numeric test results or findings.,Exp
Findings,PC,16,PCSTRESU,Standard Units,Char,C71620,,,Variable Qualifier,Standardized unit used for PCSTRESC and PCSTRESN.,Exp
Findings,PC,17,PCSTAT,Completion Status,Char,C66789,,,Record Qualifier,Used to indicate a result was not obtained. Should be null if a result exists in PCORRES.,Perm
Findings,PC,18,PCREASND,Reason Test Not Done,Char,,,,Record Qualifier,Describes why a result was not obtained such as SPECIMEN LOST. Used in conjunction with PCSTAT when value is NOT DONE.,Perm
Findings,PC,19,PCNAM,Vendor Name,Char,,,,Record Qualifier,Name or identifier of the laboratory or vendor who provides the test results.,Exp
Findings,PC,20,PCSPEC,Specimen Material Type,Char,C78734,,,Record Qualifier,"Defines the type of specimen used for a measurement. Examples: SERUM, PLASMA, URINE.",Exp
Findings,PC,21,PCSPCCND,Specimen Condition,Char,C78733,,,Record Qualifier,"Free or standardized text describing the condition of the specimen e.g. HEMOLYZED, ICTERIC, LIPEMIC etc.",Perm
Findings,PC,22,PCMETHOD,Method of Test or Examination,Char,C85492,,,Record Qualifier,"Method of the test or examination. Examples include HPLC/MS, ELISA. This should contain sufficient information and granularity to allow differentiation of various methods that might have been used within a study.",Perm
Findings,PC,23,PCFAST,Fasting Status,Char,C66742,,,Record Qualifier,Indicator used to identify fasting status.,Perm
Findings,PC,24,PCDRVFL,Derived Flag,Char,C66742,,,Record Qualifier,"Used to indicate a derived record. The value should be Y or null. Records that represent the average of other records, which do not come from the CRF, are examples of records that would be derived for the submission datasets. If PCDRVFL=Y, then PCORRES may be null with PCSTRESC, and (if numeric) PCSTRESN having the derived value.",Perm
Findings,PC,25,PCLLOQ,Lower Limit of Quantitation,Num,,,,Variable Qualifier,Indicates the lower limit of quantitation for an assay. Units should be those used in PCSTRESU.,Exp
Findings,PC,26,PCULOQ,Upper Limit of Quantitation,Num,,,,Variable Qualifier,Indicates the upper limit of quantitation for an assay. Units should be those used in PCSTRESU.,Perm
Findings,PC,27,VISITNUM,Visit Number,Num,,,,Timing,"1. Clinical encounter number. 2. Numeric version of VISIT, used for sorting.",Exp
Findings,PC,28,VISIT,Visit Name,Char,,,,Timing,1. Protocol-defined description of clinical encounter 2. May be used in addition to VISITNUM and/or VISITDY,Perm
Findings,PC,29,VISITDY,Planned Study Day of Visit,Num,,,,Timing,Planned study day of the visit based upon RFSTDTC in Demographics.,Perm
Findings,PC,30,PCDTC,Date/Time of Specimen Collection,Char,,,ISO 8601,Timing,"Date/time of specimen collection represented in ISO 8601 character format. If there is no end time, then this will be the collection time.",Exp
Findings,PC,31,PCENDTC,End Date/Time of Specimen Collection,Char,,,ISO 8601,Timing,"End date/time of specimen collection represented in ISO 8601 character format. If there is no end time, the collection time should be stored in PCDTC, and PCENDTC should be null.",Perm
Findings,PC,32,PCDY,Actual Study Day of Specimen Collection,Num,,,,Timing,"1. Study day of specimen collection, measured as integer days. 2. Algorithm for calculations must be relative to the sponsor-defined RFSTDTC variable in Demographics.",Perm
Findings,PC,33,PCTPT,Planned Time Point Name,Char,,,,Timing,"1. Text Description of time when specimen should be taken. 2. This may be represented as an elapsed time relative to a fixed reference point, such as time of last dose. See PCTPTNUM and PCTPTREF. Examples: Start, 5 min post.",Perm
Findings,PC,34,PCTPTNUM,Planned Time Point Number,Num,,,,Timing,Numerical version of PCTPT to aid in sorting.,Perm
Findings,PC,35,PCELTM,Planned Elapsed Time from Time Point Ref,Char,,,ISO 8601,Timing,"Planned elapsed time (in ISO 8601) relative to a planned fixed reference (PCTPTREF) such as ""PREVIOUS DOSE"" or ""PREVIOUS MEAL"". This variable is useful where there are repetitive measures. Not a clock time or a date time variable.",Perm
Findings,PC,36,PCTPTREF,Time Point Reference,Char,,,,Timing,"Name of the fixed reference point used as a basis for PCTPT, PCTPTNUM, and PCELTM. Example: Most Recent Dose.",Perm
Findings,PC,37,PCRFTDTC,Date/Time of Reference Point,Char,,,ISO 8601,Timing,Date/time of the reference time point described by PCTPTREF.,Perm
Findings,PC,38,PCEVLINT,Evaluation Interval,Char,,,ISO 8601,Timing,"Evaluation Interval associated with a PCTEST record represented in ISO 8601 character format. Example: ""-P2H"" to represent an interval of 2 hours prior to a PCTPT.",Perm
Findings,PP,1,STUDYID,Study Identifier,Char,,,,Identifier,Unique identifier for a study.,Req
Findings,PP,2,DOMAIN,Domain Abbreviation,Char,,PP,,Identifier,Two-character abbreviation for the domain.,Req
Findings,PP,3,USUBJID,Unique Subject Identifier,Char,,,,Identifier,Unique subject identifier within the submission.,Req
Findings,PP,4,PPSEQ,Sequence Number,Num,,,,Identifier,Sequence Number given to ensure uniqueness of subject records within a domain. May be any valid number.,Req
Findings,PP,5,PPGRPID,Group ID,Char,,,,Identifier,Used to tie together a block of related records in a single domain to support relationships within the domain and between domains.,Perm
Findings,PP,6,PPTESTCD,Parameter Short Name,Char,C85839,,,Topic,"Short name of the pharmacokinetic parameter. It can be used as a column name when converting a dataset from a vertical to a horizontal format. The value in PPTESTCD cannot be longer than 8 characters, nor can it start with a number (e.g., ""1TEST""). PPTESTCD cannot contain characters other than letters, numbers, or underscores. Examples: AUCALL, TMAX, CMAX.",Req
Findings,PP,7,PPTEST,Parameter Name,Char,C85493,,,Synonym Qualifier,"Name of the pharmacokinetic parameter. The value in PPTEST cannot be longer than 40 characters. Examples: AUC All, Time of CMAX, Max Conc.",Req
Findings,PP,8,PPCAT,Parameter Category,Char,,,,Grouping Qualifier,"Used to define a category of related records. For PP, this should be the name of the analyte in PCTEST whose profile the parameter is associated with.",Exp
Findings,PP,9,PPSCAT,Parameter Subcategory,Char,,,,Grouping Qualifier,"Categorization of the model type used to calculate the PK parameters. Examples include COMPARTMENTAL, NON-COMPARTMENTAL.",Perm
Findings,PP,10,PPORRES,Result or Finding in Original Units,Char,,,,Result Qualifier,Result of the measurement or finding as originally received or collected.,Exp
Findings,PP,11,PPORRESU,Original Units,Char,C85494,,,Variable Qualifier,Original units in which the data were collected. The unit for PPORRES. Example: ng/L.,Exp
Findings,PP,12,PPSTRESC,Character Result/Finding in Standard Format,Char,,,,Result Qualifier,"Contains the result value for all findings, copied or derived from PPORRES in a standard format or standard units. PPSTRESC should store all results or findings in character format; if results are numeric, they should also be stored in numeric format in PPSTRESN.",Exp
Findings,PP,13,PPSTRESN,Numeric Result/Finding in Standard Units,Num,,,,Result Qualifier,Used for continuous or numeric results or findings in standard format; copied in numeric format from PPSTRESC. PPSTRESN should store all numeric test results or findings.,Exp
Findings,PP,14,PPSTRESU,Standard Units,Char,C85494,,,Variable Qualifier,Standardized unit used for PPSTRESC and PPSTRESN.,Exp
Findings,PP,15,PPSTAT,Completion Status,Char,C66789,,,Record Qualifier,Used to indicate that a parameter was not calculated. Should be null if a result exists in PPORRES.,Perm
Findings,PP,16,PPREASND,Reason Parameter Not Calculated,Char,,,,Record Qualifier,"Describes why a parameter was not calculated, such as INSUFFICIENT DATA. Used in conjunction with PPSTAT when value is NOT DONE.",Perm
Findings,PP,17,PPSPEC,Specimen Material Type,Char,C78734,,,Record Qualifier,"Defines the type of specimen used for a measurement. If multiple specimen types are used for a calculation (e.g., serum and urine for renal clearance), then this field should be left blank. Examples: SERUM, PLASMA, URINE.",Exp
Findings,PP,18,PPDTC,Date/Time of Parameter Calculations,Char,,,ISO 8601,Timing,Nominal date/time of parameter calculations.,Perm
Findings,PP,19,PPRFTDTC,Date/Time of Reference Point,Char,,,ISO 8601,Timing,Date/time of the reference time point from the PC records used to calculate a parameter record. The values in PPRFTDTC should be the same as that in PCRFTDTC for related records.,Exp
Findings,PP,20,PPSTINT,Planned Start of Assessment Interval,Char,,,ISO 8601,Timing,The start of a planned evaluation or assessment interval relative to the Time Point Reference.,Perm
Findings,PP,21,PPENINT,Planned End of Assessment Interval,Char,,,ISO 8601,Timing,The end of a planned evaluation or assessment interval relative to the Time Point Reference.,Perm
Findings,PE,1,STUDYID,Study Identifier,Char,,,,Identifier,Unique identifier for a study.,Req
Findings,PE,2,DOMAIN,Domain Abbreviation,Char,,PE,,Identifier,Two-character abbreviation for the domain.,Req
Findings,PE,3,USUBJID,Unique Subject Identifier,Char,,,,Identifier,Identifier used to uniquely identify a subject across all studies for all applications or submissions involving the product.,Req
Findings,PE,4,PESEQ,Sequence Number,Num,,,,Identifier,Sequence Number given to ensure uniqueness of subject records within a domain. May be any valid number.,Req
Findings,PE,5,PEGRPID,Group ID,Char,,,,Identifier,Used to tie together a block of related records in a single domain for a subject.,Perm
Findings,PE,6,PESPID,Sponsor-Defined Identifier,Char,,,,Identifier,Sponsor-defined reference number. Perhaps pre-printed on the CRF as an explicit line identifier or defined in the sponsor's operational database. Example: Line number on a CRF.,Perm
Findings,PE,7,PETESTCD,Body System Examined Short Name,Char,,,,Topic,"Short name of the measurement, test, or examination described in PETEST. It can be used as a column name when converting a dataset from a vertical to a horizontal format. The value in PETESTCD cannot be longer than 8 characters, nor can it start with a number (e.g.""1TEST""). PETESTCD cannot contain characters other than letters, numbers, or underscores.",Req
Findings,PE,8,PETEST,Body System Examined,Char,,,,Synonym Qualifier,"Verbatim term part of the body examined. The value in PETEST cannot be longer than 40 characters. Examples: Cardiovascular and Respiratory. For subject-level exam, value should be ""Physical Examination"".",Req
Findings,PE,9,PEMODIFY,Modified Reported Term,Char,,,,Synonym Qualifier,"If PEORRES is modified as part of a defined procedure, then PEMODIFY will contain the modified text.",Perm
Findings,PE,10,PECAT,Category for Examination,Char,,,,Grouping Qualifier,"Used to define a category of examination. Examples: GENERAL, NEUROLOGICAL.",Perm
Findings,PE,11,PESCAT,Subcategory for Examination,Char,,,,Grouping Qualifier,A further categorization of the examination. Used if needed to add further detail to PECAT.,Perm
Findings,PE,12,PEBODSYS,Body System or Organ Class,Char,,,,Result Qualifier,"Body system or organ class ( MedDRA SOC) that is involved in a measurement from the standard hierarchy (e.g., MedDRA).",Perm
Findings,PE,13,PEORRES,Verbatim Examination Finding,Char,,,,Result Qualifier,"Text description of any abnormal findings. If the examination was completed and there were no abnormal findings, the value should be NORMAL. If the examination was not performed on a particular body system, or at the subject level, then the value should be null, and NOT DONE should appear in PESTAT.",Exp
Findings,PE,14,PEORRESU,Original Units,Char,C71620,,,Variable Qualifier,Original units in which the data were collected. The unit for PEORRES.,Perm
Findings,PE,15,PESTRESC,Character Result/Finding in Standard Format,Char,,,,Result Qualifier,"If there are findings for a body system, then either the dictionary preferred term (if findings are coded using a dictionary) or PEORRES (if findings are not coded) should appear here. If PEORRES is null, PESTRESC should be null",Exp
Findings,PE,16,PESTAT,Completion Status,Char,C66789,,,Record Qualifier,Used to indicate exam not done. Should be null if a result exists in PEORRES.,Perm
Findings,PE,17,PEREASND,Reason Not Examined,Char,,,,Record Qualifier,Describes why an examination was not performed or why a body system was not examined. Example: SUBJECT REFUSED. Used in conjunction with STAT when value is NOT DONE.,Perm
Findings,PE,18,PELOC,Location of Physical Exam Finding,Char,C74456,,,Record Qualifier,Can be used to specify where a physical exam finding occurred. Example: ARM for skin rash.,Perm
Findings,PE,19,PEMETHOD,Method of Test or Examination,Char,C85492,,,Record Qualifier,"Method of the test or examination. Examples: XRAY, MRI.",Perm
Findings,PE,20,PEEVAL,Evaluator,Char,C78735,,,Record Qualifier,"Role of the person who provided the evaluation. Used only for results that are subjective (e.g., assigned by a person or a group). Should be null for records that contain collected or derived data. Examples: INVESTIGATOR, ADJUDICATION COMMITTEE.",Perm
Findings,PE,21,VISITNUM,Visit Number,Num,,,,Timing,"1. Clinical encounter number. 2. Numeric version of VISIT, used for sorting.",Exp
Findings,PE,22,VISIT,Visit Name,Char,,,,Timing,1. Protocol-defined description of clinical encounter. 2. May be used in addition to VISITNUM and/or VISITDY.,Perm
Findings,PE,23,VISITDY,Planned Study Day of Visit,Num,,,,Timing,Planned study day of the visit based upon RFSTDTC in Demographics.,Perm
Findings,PE,24,PEDTC,Date/Time of Examination,Char,,,ISO 8601,Timing,,Exp
Findings,PE,25,PEDY,Study Day of Examination,Num,,,,Timing,"1. Study day of physical exam, measured as integer days. 2. Algorithm for calculations must be relative to the sponsor-defined RFSTDTC variable in Demographics.",Perm
Findings,QS,1,STUDYID,Study Identifier,Char,,,,Identifier,Unique identifier for a study.,Req
Findings,QS,2,DOMAIN,Domain Abbreviation,Char,,QS,,Identifier,Two-character abbreviation for the domain.,Req
Findings,QS,3,USUBJID,Unique Subject Identifier,Char,,,,Identifier,Identifier used to uniquely identify a subject across all studies for all applications or submissions involving the product.,Req
Findings,QS,4,QSSEQ,Sequence Number,Num,,,,Identifier,Sequence Number given to ensure uniqueness of subject records within a domain. May be any valid number.,Req
Findings,QS,5,QSGRPID,Group ID,Char,,,,Identifier,Used to tie together a block of related records in a single domain for a subject.,Perm
Findings,QS,6,QSSPID,Sponsor-Defined Identifier,Char,,,,Identifier,Sponsor-defined reference number. Perhaps pre-printed on the CRF as an explicit line identifier or defined in the sponsor's operational database. Example: Question number on a questionnaire.,Perm
Findings,QS,7,QSTESTCD,Question Short Name,Char,,,,Topic,"Topic variable for QS. Short name for the value in QSTEST, which can be used as a column name when converting the dataset from a vertical format to a horizontal format. The value in QSTESTCD cannot be longer than 8 characters, nor can it start with a number (e.g.""1TEST""). QSTESTCD cannot contain characters other than letters, numbers, or underscores. See QS Terminology Spreadsheet for specific text for QSTESTCD. Examples: ADCCMD01, BPR0103",Req
Findings,QS,8,QSTEST,Question Name,Char,,,,Synonym Qualifier,"Verbatim name of the question or group of questions used to obtain the measurement or finding. The value in QSTEST cannot be longer than 40 characters. See QS Terminology Spreadsheet for specific text for QSTEST. Example: Fist, BPR01 - Emotional Withdrawal",Req
Findings,QS,9,QSCAT,Category of Question,Char,C100129,,,Grouping Qualifier,"Used to define a category of related records that will be meaningful to the Reviewer. See QS Terminology Spreadsheet for specific text for QSCAT. Examples: ADAS-COG, MDS-UPDRS.",Req
Findings,QS,10,QSSCAT,Subcategory for Question,Char,,,,Grouping Qualifier,"A further categorization of the questions within the category. Examples: MENTAL HEALTH DOMAIN, DEPRESSION DOMAIN, WORD RECALL.",Perm
Findings,QS,11,QSORRES,Finding in Original Units,Char,,,,Result Qualifier,"Finding as originally received or collected (e.g. RARELY, SOMETIMES). When sponsors apply codelist to indicate the code values are statistically meaningful standardized scores, which are defined by sponsors or by valid methodologies such as SF36 questionnaires, QSORRES will contain the decode format, and QSSTRESC and QSSTRESN may contain the standardized code values or scores.",Exp
Findings,QS,12,QSORRESU,Original Units,Char,C71620,,,Variable Qualifier,"Original units in which the data were collected. The unit for QSORRES, such as minutes or seconds or the units associated with a visual analog scale.",Perm
Findings,QS,13,QSSTRESC,Character Result/Finding in Standard Format,Char,,,,Result Qualifier,"Contains the finding for all questions or sub-scores, copied or derived from QSORRES in a standard format or standard units. QSSTRESC should store all findings in character format; if findings are numeric, they should also be stored in numeric format in QSSTRESN. If question scores are derived from the original finding, then the standard format is the score. Examples: 0, 1. When sponsors apply codelist to indicate the code values are statistically meaningful standardized scores, which are defined by sponsors or by valid methodologies such as SF36 questionnaires, QSORRES will contain the decode format, and QSSTRESC and QSSTRESN may contain the standardized code values or scores.",Exp
Findings,QS,14,QSSTRESN,Numeric Finding in Standard Units,Num,,,,Result Qualifier,Used for continuous or numeric findings in standard format; copied in numeric format from QSSTRESC. QSSTRESN should store all numeric results or findings.,Perm
Findings,QS,15,QSSTRESU,Standard Units,Char,C71620,,,Variable Qualifier,Standardized unit used for QSSTRESC or QSSTRESN.,Perm
Findings,QS,16,QSSTAT,Completion Status,Char,C66789,,,Record Qualifier,Used to indicate a questionnaire or response to a questionnaire was not done. Should be null if a result exists in QSORRES.,Perm
Findings,QS,17,QSREASND,Reason Not Performed,Char,,,,Record Qualifier,Describes why a question was not answered. Used in conjunction with QSSTAT when value is NOT DONE. Example: SUBJECT REFUSED.,Perm
Findings,QS,18,QSBLFL,Baseline Flag,Char,C66742,,,Record Qualifier,"Indicator used to identify a baseline value. The value should be ""Y"" or null.",Exp
Findings,QS,19,QSDRVFL,Derived Flag,Char,C66742,,,Record Qualifier,"Used to indicate a derived record. The value should be Y or null. Records that represent the average of other records or questionnaire sub-scores that do not come from the CRF are examples of records that would be derived for the submission datasets. If QSDRVFL=Y, then QSORRES may be null with QSSTRESC and (if numeric) QSSTRESN having the derived value.",Perm
Findings,QS,20,QSEVAL,Evaluator,Char,C78735,,,Record Qualifier,"Role of the person who provided the evaluation.  Examples:  STUDY SUBJECT, CAREGIVER, INVESTIGATOR.",Perm
Findings,QS,21,VISITNUM,Visit Number,Num,,,,Timing,"1. Clinical encounter number. 2. Numeric version of VISIT, used for sorting.",Exp
Findings,QS,22,VISIT,Visit Name,Char,,,,Timing,1. Protocol-defined description of clinical encounter.  2. May be used in addition to VISITNUM and/or VISITDY.,Perm
Findings,QS,23,VISITDY,Planned Study Day of Visit,Num,,,,Timing,Planned study day of the visit based upon RFSTDTC in Demographics.,Perm
Findings,QS,24,QSDTC,Date/Time of Finding,Char,,,ISO 8601,Timing,Date of questionnaire.,Exp
Findings,QS,25,QSDY,Study Day of Finding,Num,,,,Timing,"1. Study day of finding collection, measured as integer days. 2. Algorithm for calculations must be relative to the sponsor-defined RFSTDTC variable in Demographics.",Perm
Findings,QS,26,QSTPT,Planned Time Point Name,Char,,,,Timing,"1. Text Description of time when questionnaire should be administered. 2. This may be represented as an elapsed time relative to a fixed reference point, such as time of last dose. See QSTPTNUM and QSTPTREF.",Perm
Findings,QS,27,QSTPTNUM,Planned Time Point Number,Num,,,,Timing,Numerical version of QSTPT to aid in sorting.,Perm
Findings,QS,28,QSELTM,Planned Elapsed Time from Time Point Ref,Char,,,ISO 8601,Timing,"Planned Elapsed time (in ISO 8601) relative to a planned fixed reference (QSTPTREF). This variable is useful where there are repetitive measures. Not a clock time or a date time variable. Represented as an ISO 8601 duration. Examples: ""-PT15M"" to represent the period of 15 minutes prior to the reference point indicated by QSTPTREF, or ""PT8H"" to represent the period of 8 hours after the reference point indicated by QSTPTREF.",Perm
Findings,QS,29,QSTPTREF,Time Point Reference,Char,,,,Timing,"Name of the fixed reference point referred to by QSELTM, QSTPTNUM, and QSTPT. Examples: PREVIOUS DOSE, PREVIOUS MEAL.",Perm
Findings,QS,30,QSRFTDTC,Date/Time of Reference Time Point,Char,,,ISO 8601,Timing,"Date/time of the reference time point, LBTPTREF.",Perm
Findings,QS,31,QSEVLINT,Evaluation Interval,Char,,,ISO 8601,Timing,"Evaluation Interval associated with a QSTEST question represented in ISO 8601 character format. Example: ""-P2Y"" to represent an interval of 2 years in the question ""Have you experienced any episodes in the past 2 years?""",Perm
Findings,RP,1,STUDYID,Study Identifier,Char,,,,Identifier,Unique identifier for a study.,Req
Findings,RP,2,DOMAIN,Domain Abbreviation,Char,,RP,,Identifier,Two-character abbreviation for the domain.,Req
Findings,RP,3,USUBJID,Unique Subject Identifier,Char,,,,Identifier,Identifier used to uniquely identify a subject across all studies for all applications or submissions involving the product.,Req
Findings,RP,4,RPSEQ,Sequence Number,Num,,,,Identifier,Sequence Number given to ensure uniqueness of subject records within a domain. May be any valid number.,Req
Findings,RP,5,RPGRPID,Group ID,Char,,,,Identifier,Used to tie together a block of related records in a single domain for a subject.,Perm
Findings,RP,6,RPREFID,Reference ID,Char,,,,Identifier,Internal or external Reproductive System Findings record identifier.,Perm
Findings,RP,7,RPSPID,Sponsor-Defined Identifier,Char,,,,Identifier,Sponsor-defined identifier. Perhaps pre-printed on the CRF as an explicit line identifier or defined in the sponsor's operational database.,Perm
Findings,RP,8,RPTESTCD,Repro System Findings Test Short Name,Char,C106479,,,Topic,"Short name of the measurement, test, or examination described in RPTEST. It can be used as a column name when converting a dataset from a vertical to a horizontal format. The value in RPTESTCD cannot be longer than 8 characters, nor can it start with a number (e.g.""1TEST""). RPTESTCD cannot contain characters other than letters, numbers, or underscores. Examples: NUMLIV, NUMPREG, BCMETHOD, etc.",Req
Findings,RP,9,RPTEST,Reproductive System Findings Test Name,Char,C106478,,,Synonym Qualifier,"Verbatim name of the test or examination used to obtain the measurement or finding. The value in RPTEST cannot be longer than 40 characters. Examples: Number of Live Births, Number of Pregnancies, Birth Control Method, etc.",Req
Findings,RP,10,RPCAT,Category for Repro System Findings,Char,,,,Grouping Qualifier,Used to define a category of related records.,Perm
Findings,RP,11,RPSCAT,Subcategory for Repro System Findings,Char,,,,Grouping Qualifier,A further categorization of RP records.,Perm
Findings,RP,12,RPORRES,Result or Finding in Original Units,Char,,,,Result Qualifier,Result of the Reproductive System Findings test as originally received or collected.,Exp
Findings,RP,13,RPORRESU,Original Units,Char,C71620,,,Variable Qualifier,Original units in which the data were collected. The unit for RPORRES. Examples: YEARS.,Exp
Findings,RP,14,RPSTRESC,Character Result/Finding in Std. Format,Char,,,,Result Qualifier,"Contains the result value for all findings, copied or derived from RPORRES in a standard format or standard units. RPSTRESC should store all results or findings in character format; if results are numeric, they should also be stored in numeric format in RPSTRESN. For example, if a test has results ""NONE"", ""NEG"", and ""NEGATIVE"" in RPORRES and these results effectively have the same meaning; they could be represented in standard format in RPSTRESC as ""NEGATIVE"".",Exp
Findings,RP,15,RPSTRESN,Numeric Result/Finding in Standard Units,Num,,,,Result Qualifier,Used for continuous or numeric results or findings in standard format; copied in numeric format from RPSTRESC. RPSTRESN should store all numeric test results or findings.,Exp
Findings,RP,16,RPSTRESU,Standard Units,Char,C71620,,,Variable Qualifier,Standardized unit used for RPSTRESC and RPSTRESN.,Exp
Findings,RP,17,RPSTAT,Completion Status,Char,C66789,,,Record Qualifier,Used to indicate that a Reproductive System Findings test was not done. Should be null if a result exists in RPORRES.,Perm
Findings,RP,18,RPREASND,Reason Not Performed,Char,,,,Record Qualifier,Describes why a measurement or test was not performed. Examples: BROKEN EQUIPMENT or SUBJECT REFUSED. Used in conjunction with RPSTAT when value is NOT DONE.,Perm
Findings,RP,19,RPBLFL,Baseline Flag,Char,C66742,,,Record Qualifier,"Indicator used to identify a baseline value. The value should be ""Y"" or null.",Perm
Findings,RP,20,RPDRVFL,Derived Flag,Char,C66742,,,Record Qualifier,"Used to indicate a derived record. The value should be Y or null. Records which represent the average of other records or which do not come from the CRF are examples of records that would be derived for the submission datasets. If RPDRVFL=Y, then RPORRES may be null, with RPSTRESC and (if numeric) RPSTRESN having the derived value.",Perm
Findings,RP,21,VISITNUM,Visit Number,Num,,,,Timing,"1. Clinical encounter number.  2. Numeric version of VISIT, used for sorting.",Perm
Findings,RP,22,VISIT,Visit Name,Char,,,,Timing,1. Protocol-defined description of clinical encounter.  2. May be used in addition to VISITNUM and/or VISITDY.,Perm
Findings,RP,23,VISITDY,Planned Study Day of Visit,Num,,,,Timing,Planned study day of the visit based upon RFSTDTC in Demographics.,Perm
Findings,RP,24,RPDTC,Date/Time of Measurements,Char,,,ISO 8601,Timing,Date of Reproductive System Finding.,Exp
Findings,RP,25,RPDY,Study Day of Repro System Findings,Num,,,,Timing,"1. Study day of Reproductive System Findings observation, measured as integer days.  2. Algorithm for calculations must be relative to the sponsor-defined RFSTDTC variable in Demographics.",Perm
Findings,SC,1,STUDYID,Study Identifier,Char,,,,Identifier,Unique identifier for a study.,Req
Findings,SC,2,DOMAIN,Domain Abbreviation,Char,,SC,,Identifier,Two-character abbreviation for the domain.,Req
Findings,SC,3,USUBJID,Unique Subject Identifier,Char,,,,Identifier,Identifier used to uniquely identify a subject across all studies for all applications or submissions involving the product.,Req
Findings,SC,4,SCSEQ,Sequence Number,Num,,,,Identifier,Sequence Number given to ensure uniqueness of subject records within a domain. May be any valid number.,Req
Findings,SC,5,SCGRPID,Group ID,Char,,,,Identifier,Used to tie together a block of related records in a single domain for a subject.,Perm
Findings,SC,6,SCSPID,Sponsor-Defined Identifier,Char,,,,Identifier,Sponsor-defined reference number. Perhaps pre-printed on the CRF as an explicit line identifier or defined in the sponsor's operational database.,Perm
Findings,SC,7,SCTESTCD,Subject Characteristic Short Name,Char,C74559,,,Topic,"Short name of the measurement, test, or examination described in SCTEST. It can be used as a column name when converting a dataset from a vertical to a horizontal format. The value in SCTESTCD cannot be longer than 8 characters, nor can it start with a number (e.g.""1TEST""). SCTESTCD cannot contain characters other than letters, numbers, or underscores. Example: MARISTAT, NATORIG.",Req
Findings,SC,8,SCTEST,Subject Characteristic,Char,C103330,,,Synonym Qualifier,"Verbatim name of the test or examination used to obtain the measurement or finding. The value in SCTEST cannot be longer than 40 characters. Examples: Marital Status, National Origin.",Req
Findings,SC,9,SCCAT,Category for Subject Characteristic,Char,,,,Grouping Qualifier,Used to define a category of related records.,Perm
Findings,SC,10,SCSCAT,Subcategory for Subject Characteristic,Char,,,,Grouping Qualifier,A further categorization of the subject characteristic.,Perm
Findings,SC,11,SCORRES,Result or Finding in Original Units,Char,,,,Result Qualifier,Result of the subject characteristic as originally received or collected.,Exp
Findings,SC,12,SCORRESU,Original Units,Char,C71620,,,Variable Qualifier,Original Unit in which the data were collected. The unit for SCORRES.,Perm
Findings,SC,13,SCSTRESC,Character Result/Finding in Std Format,Char,,,,Result Qualifier,"Contains the result value for all findings, copied or derived from SCORRES in a standard format or standard units. SCSTRESC should store all results or findings in character format; if results are numeric, they should also be stored in numeric format in SCSTRESN. For example, if a test has results ""NONE"", ""NEG"", and ""NEGATIVE"" in SCORRES and these results effectively have the same meaning, they could be represented in standard format in SCSTRESC as ""NEGATIVE"".",Exp
Findings,SC,14,SCSTRESN,Numeric Result/Finding in Standard Units,Num,,,,Result Qualifier,Used for continuous or numeric results or findings in standard format; copied in numeric format from SCSTRESC. SCSTRESN should store all numeric test results or findings.,Perm
Findings,SC,15,SCSTRESU,Standard Units,Char,C71620,,,Variable Qualifier,Standardized unit used for SCSTRESC or SCSTRESN.,Perm
Findings,SC,16,SCSTAT,Completion Status,Char,C66789,,,Record Qualifier,Used to indicate that the measurement was not done. Should be null if a result exists in SCORRES.,Perm
Findings,SC,17,SCREASND,Reason Not Performed,Char,,,,Record Qualifier,Describes why the observation has no result. Example: subject refused. Used in conjunction with SCSTAT when value is NOT DONE.,Perm
Findings,SC,18,SCDTC,Date/Time of Collection,Char,,,ISO 8601,Timing,,Perm
Findings,SC,19,SCDY,Study Day of Examination,Num,,,,Timing,"1. Study day of collection, measured as integer days.  2. Algorithm for calculations must be relative to the sponsor-defined RFSTDTC variable in Demographics.",Perm
Findings,SS,1,STUDYID,Study Identifier,Char,,,,Identifier,Unique identifier for a study.,Req
Findings,SS,2,DOMAIN,Domain Abbreviation,Char,,SS,,Identifier,Two-character abbreviation for the domain.,Req
Findings,SS,3,USUBJID,Unique Subject Identifier,Char,,,,Identifier,Identifier used to uniquely identify a subject across all studies for all applications or submissions involving the product.,Req
Findings,SS,4,SSSEQ,Sequence Number,Num,,,,Identifier,Sequence Number given to ensure uniqueness of subject records within a domain. May be any valid number.,Req
Findings,SS,5,SSGRPID,Group ID,Char,,,,Identifier,Used to tie together a block of related records in a single domain for a subject.,Perm
Findings,SS,6,SSSPID,Sponsor-Defined Identifier,Char,,,,Identifier,Sponsor-defined reference number. Perhaps pre-printed on the CRF as an explicit line identifier or defined in the sponsor's operational database. Example: Line number from the procedure or test page.,Perm
Findings,SS,7,SSTESTCD,Status Short Name,Char,C124305,,,Topic,"Short name of the status assessment described in SSTEST. It can be used as a column name when converting a dataset from a vertical to a horizontal format. The value in SSTESTCD cannot be longer than 8 characters, nor can it start with a number (e.g., ""1TEST""). SSTESTCD cannot contain characters other than letters, numbers, or underscores. Example: SURVSTAT",Req
Findings,SS,8,SSTEST,Status Name,Char,C124306,,,Synonym Qualifier,Verbatim name of the status assessment used to obtain the finding. The value in SSTEST cannot be longer than 40 characters. Example: Survival Status,Req
Findings,SS,9,SSCAT,Category for Assessment,Char,,,,Grouping Qualifier,Used to categorize observations across subjects.,Perm
Findings,SS,10,SSSCAT,Subcategory for Assessment,Char,,,,Grouping Qualifier,A further categorization.,Perm
Findings,SS,11,SSORRES,Result or Finding Original Result,Char,,,,Result Qualifier,Result of the status assessment finding as originally received or collected.,Exp
Findings,SS,12,SSSTRESC,Character Result/Finding in Std Format,Char,,,,Result Qualifier,"Contains the result value for all findings, copied or derived from SSORRES in a standard format.",Exp
Findings,SS,13,SSSTAT,Completion Status,Char,C66789,,,Record Qualifier,Used to indicate a status assessment was not done. Should be null if a result exists in SSORRES.,Perm
Findings,SS,14,SSREASND,Reason Assessment Not Performed,Char,,,,Record Qualifier,Describes why an assessment was not performed. Example: SUBJECT REFUSED. Used in conjunction with SSSTAT when value is NOT DONE.,Perm
Findings,SS,15,SSEVAL,Evaluator,Char,C78735,,,Record Qualifier,"Role of the person who provided the evaluation. Used only for results that are subjective (e.g., assigned by a person or a group). Should be null for records that contain collected or derived data. Examples: CAREGIVER, ADJUDICATION COMMITTEE, FRIEND.",Perm
Findings,SS,16,VISITNUM,Visit Number,Num,,,,Timing,"1. Clinical encounter number.  2. Numeric version of VISIT, used for sorting.",Exp
Findings,SS,17,VISIT,Visit Name,Char,,,,Timing,1. Protocol-defined description of clinical encounter.  2. May be used in addition to VISITNUM and/or VISITDY.,Perm
Findings,SS,18,VISITDY,Planned Study Day of Visit,Num,,,,Timing,Planned study day of the visit based upon RFSTDTC in Demographics.,Perm
Findings,SS,19,SSDTC,Date/Time of Assessment,Char,,,ISO 8601,Timing,,Exp
Findings,SS,20,SSDY,Study Day of Assessment,Num,,,,Timing,"1. Study day of the test, measured as integer days.  2. Algorithm for calculations must be relative to the sponsor-defined RFSTDTC variable in Demographics.",Perm
Findings,TU,1,STUDYID,Study Identifier,Char,,,,Identifier,Unique identifier for a study.,Req
Findings,TU,2,DOMAIN,Domain Abbreviation,Char,,TU,,Identifier,Two-character abbreviation for the domain.,Req
Findings,TU,3,USUBJID,Unique Subject Identifier,Char,,,,Identifier,Identifier used to uniquely identify a subject across all studies for all applications or submissions involving the product.,Req
Findings,TU,4,TUSEQ,Sequence Number,Num,,,,Identifier,Sequence number given to ensure uniqueness within a dataset for a subject. May be any valid number.,Req
Findings,TU,5,TUGRPID,Group ID,Char,,,,Identifier,Used to link together a block of related records within a subject in a domain. Can be used to group split or merged tumors which have been identified.,Perm
Findings,TU,6,TUREFID,Reference ID,Char,,,,Identifier,Internal or external identifier. Example: Medical image ID number.,Perm
Findings,TU,7,TUSPID,Sponsor-Defined Identifier,Char,,,,Identifier,Sponsor-defined identifier.,Perm
Findings,TU,8,TULNKID,Link ID,Char,,,,Identifier,Identifier used to link identified tumors to the assessment results (in TR domain) over the course of the study.,Exp
Findings,TU,9,TUTESTCD,Tumor Identification Short Name,Char,C96784,,,Topic,"Short name of the TEST in TUTEST. TUTESTCD cannot be longer than 8 characters nor can start with a number. TUTESTCD contain characters other than letters, numbers, or underscores. Example: TUMIDENT (Tumor Identification). See Assumption 2.",Req
Findings,TU,10,TUTEST,Tumor Identification Test Name,Char,C96783,,,Synonym Qualifier,Verbatim name of the test for the tumor identification. The value in TUTEST cannot be longer than 40 characters. Example: Tumor Identification. See Assumption 2.,Req
Findings,TU,11,TUORRES,Tumor Identification Result,Char,,,,Result Qualifier,"Result of the Tumor identification. The result of tumor identification is a classification of identified tumor. Examples: When TUTESTCD=TUMIDENT (Tumor Identification), values of TUORRES might be: TARGET, NON-TARGET, or NEW. or BENIGN ABNORMALITY",Exp
Findings,TU,12,TUSTRESC,Tumor Identification Result Std. Format,Char,C96780,,,Record Qualifier,Contains the result value for all findings copied from TUORRES.,Exp
Findings,TU,13,TUNAM,Vendor Name,Char,,,,Record Qualifier,The name or identifier of the vendor that performed the Tumor Identification. This column can be left Null when the Investigator provides the complete set of data in the domain.,Perm
Findings,TU,14,TULOC,Location of the Tumor,Char,C74456,,,Record Qualifier,Used to specify the anatomical location of the identified tumor. Example: LIVER  Note: When anatomical location is broken down and collected as distinct pieces of data that when combined provide the overall location information (e.g. laterality /directionality / distribution) then the additional anatomical location qualifiers should be used. See Assumption 3.,Exp
Findings,TU,15,TULAT,Laterality,Char,C99073,,,Record Qualifier,"Qualifier for anatomical location or specimen further detailing laterality, for example, LEFT, RIGHT, BILATERAL.",Perm
Findings,TU,16,TUDIR,Directionality,Char,C99074,,,Record Qualifier,"Qualifier for anatomical location or specimen further detailing directionality, for example, UPPER, INTERIOR.",Perm
Findings,TU,17,TUPORTOT,Portion or Totality,Char,C99075,,,Record Qualifier,"Qualifier for anatomical location or specimen further detailing the distribution which means arrangement of, or apportioning of, for example, ENTIRE, SINGLE, SEGMENT, MULTIPLE.",Perm
Findings,TU,18,TUMETHOD,Method of Identification,Char,C85492,,,Record Qualifier,"Method used to identify the tumor. Examples: MRI, CT SCAN.",Exp
Findings,TU,19,TUEVAL,Evaluator,Char,C78735,,,Record Qualifier,"Role of the person who provided the evaluation. Examples: INVESTIGATOR, INDEPENDNT ASSESSOR  This column can be left Null when the Investigator provides the complete set of data in the domain. However the column should contain no Null values when data from one or more independent assessors is included meaning that the rows attributed to the Investigator should contain a value of INVESTIGATOR.",Exp
Findings,TU,20,TUEVALID,Evaluator Identifier,Char,C96777,,,Variable Qualifier,"The Evaluator Specified variable is used in conjunction with TUEVAL to provide an additional level of detail. When multiple assessors play the role identified in TUEVAL, values of TUEVALID will attribute a row of data to a particular assessor. TUEVALID should not contain the names of the assessors, or a code identifier for a specific assessor, but should contain values such as RADIOLOGIST, RADIOLOGIST 1 or RADIOLOGIST 2. The TUEVALID variable is subject to CDISC Controlled Terminology. See Assumption 7.",Perm
Findings,TU,21,TUACPTFL,Accepted Record Flag,Char,C66742,,,Record Qualifier,"In cases where more than one independent assessor (e.g. RADIOLOGIST 1, RADIOLOGIST 2, ADJUDICATOR) provide independent assessments at the same time point this flag identifies the record that is considered to be the accepted assessment.",Perm
Findings,TU,22,VISITNUM,Visit Number,Num,,,,Timing,"1. Clinical encounter number.  2. Numeric version of VISIT, used for sorting.",Exp
Findings,TU,23,VISIT,Visit Name,Char,,,,Timing,1. Protocol-defined description of clinical encounter.  2. May be used in addition to VISITNUM and/or VISITDY.,Perm
Findings,TU,24,VISITDY,Planned Study Day of Visit,Num,,,,Timing,,Perm
Findings,TU,25,EPOCH,Epoch,Char,,,,Timing,Epoch associated with the Element in the planned sequence of Elements for the ARM to which the subject was assigned.,Perm
Findings,TU,26,TUDTC,Date/Time of Tumor Identification,Char,,,ISO 8601,Timing,TUDTC variable represents the date of the scan/image/physical exam not the date that the image was read to identify tumors. TUDTC variable does not represent the VISIT date.,Exp
Findings,TU,27,TUDY,Study Day of Tumor Identification,Num,,,,Timing,"1. Study day of the scan/image/physical exam, measured as integer days.  2. Algorithm for calculations must be relative to the sponsor-defined RFSTDTC variable in Demographics.",Perm
Findings,TR,1,STUDYID,Study Identifier,Char,,,,Identifier,Unique identifier for a study.,Req
Findings,TR,2,DOMAIN,Domain Abbreviation,Char,,TR,,Identifier,Two-character abbreviation for the domain.,Req
Findings,TR,3,USUBJID,Unique Subject Identifier,Char,,,,Identifier,Identifier used to uniquely identify a subject across all studies for all applications or submissions involving the product.,Req
Findings,TR,4,TRSEQ,Sequence Number,Num,,,,Identifier,Sequence number given to ensure uniqueness within a dataset for a subject. May be any valid number.,Req
Findings,TR,5,TRGRPID,Group ID,Char,,,,Identifier,Used to link together a block of related records within a subject in a domain.,Perm
Findings,TR,6,TRREFID,Reference ID,Char,,,,Identifier,Internal or external identifier.,Perm
Findings,TR,7,TRSPID,Sponsor-Defined Identifier,Char,,,,Identifier,Sponsor-defined identifier.,Perm
Findings,TR,8,TRLNKID,Link ID,Char,,,,Identifier,Identifier used to link the assessment result records to the individual tumor identification record in TU domain.,Exp
Findings,TR,9,TRLNKGRP,Link Group,Char,,,,Identifier,Used to group and link all of the measurement/assessment records used in the assessment of the response record in the RS domain.,Perm
Findings,TR,10,TRTESTCD,Tumor Assessment Short Name,Char,C96779,,,Topic,"Short name of the TEST in TRTEST. TRTESTCD cannot contain characters other than letters, numbers, or underscores. Examples: TUMSTATE, DIAMETER. See Assumption 2.",Req
Findings,TR,11,TRTEST,Tumor Assessment Test Name,Char,C96778,,,Synonym Qualifier,"Verbatim name of the test or examination used to obtain the measurement or finding. The value in TRTEST cannot be longer than 40 characters. Examples: Tumor State, Diameter, Longest Perpendicular diameter, Volume, Area. See Assumption 2.",Req
Findings,TR,12,TRORRES,Result or Finding in Original Units,Char,,,,Result Qualifier,Result of the Tumor measurement/assessment as originally received or collected.,Exp
Findings,TR,13,TRORRESU,Original Units,Char,C71620,,,Variable Qualifier,Original units in which the data were collected. The unit for TRORRES. Example: mm,Exp
Findings,TR,14,TRSTRESC,Character Result/Finding in Std Format,Char,,,,Record Qualifier,"Contains the result value for all findings, copied or derived from TRORRES in a standard format or standard units. TRSTRESC should store all results or findings in character format; if results are numeric, they should also be stored in numeric format in TRSTRESN",Exp
Findings,TR,15,TRSTRESN,Numeric Result/Finding in Standard Units,Num,,,,Result Qualifier,Used for continuous or numeric results or findings in standard format; copied in numeric format from TRSTRESC. TRSTRESN should store all numeric test results or findings.,Exp
Findings,TR,16,TRSTRESU,Standard Units,Char,C71620,,,Variable Qualifier,Standardized unit used for TRSTRESN.,Exp
Findings,TR,17,TRSTAT,Completion Status,Char,C66789,,,Result Qualifier,Used to indicate a scan/image/physical exam was not performed or a tumor measurement was not taken. Should be Null if a result exists in TRORRES.,Perm
Findings,TR,18,TRREASND,Reason Tumor Measurement Not Performed,Char,,,,Record Qualifier,"Describes why a scan/image/physical exam was not performed or a tumor measurement was not taken. Examples: SCAN NOT PERFORMED, NOT ASSESSABLE: Image obscured, TUMOR. Used in conjunction with TRSTAT when value is NOT DONE.",Perm
Findings,TR,19,TRNAM,Vendor Name,Char,,,,Record Qualifier,The name or identifier of the vendor that performed the Tumor measurement or assessment. This column can be left Null when the Investigator provides the complete set of data in the domain.,Perm
Findings,TR,20,TRMETHOD,Method used to Identify the Tumor,,C85492,,,Record Qualifier,"Method used to measure the tumor. Examples: MRI, CT SCAN.",Exp
Findings,TR,21,TREVAL,Evaluator,Char,C78735,,,Record Qualifier,"Role of the person who provided the evaluation. Examples: INVESTIGATOR, INDEPENDENT ASSESSOR.  This column can be left Null when the Investigator provides the complete set of data in the domain. However the column should contain no Null values when data from one or more independent assessors is included meaning that the rows attributed to the Investigator should contain a value of INVESTIGATOR.",Exp
Findings,TR,22,TREVALID,Evaluator Identifier,Char,C96777,,,Variable Qualifier,"The Evaluator Specified variable is used in conjunction with TREVAL to provide an additional level of detail. When multiple assessors play the role identified in TREVAL, values of TREVALID will attribute a row of data to a particular assessor. TREVALID should not contain the names of the assessors, or a code identifier for a specific assessor, but should contain values such as RADIOLOGIST, RADIOLOGIST 1 or RADIOLOGIST 2. The TREVALID variable is subject to CDISC Controlled Terminology. Note TREVAL must also be populated when TREVALID is populated. See Assumption 7.",Perm
Findings,TR,23,TRACPTFL,Accepted Record Flag,Char,C66742,,,Record Qualifier,"In cases where more than one independent assessor (e.g. RADIOLOGIST 1, RADIOLOGIST 2, ADJUDICATOR) provide independent assessments at the same timepoint this flag identifies the record that is considered to be the accepted assessment.",Perm
Findings,TR,24,VISITNUM,Visit Number,Num,,,,Timing,"1. Clinical encounter number.  2. Numeric version of VISIT, used for sorting.",Exp
Findings,TR,25,VISIT,Visit Name,Char,,,,Timing,1. Protocol-defined description of clinical encounter.  2. May be used in addition to VISITNUM and/or VISITDY.,Perm
Findings,TR,26,VISITDY,Planned Study Day of Visit,Num,,,,Timing,,Perm
Findings,TR,27,EPOCH,Epoch,Char,,,,Timing,Epoch associated with the Element in the planned sequence of Elements for the ARM to which the subject was assigned,Perm
Findings,TR,28,TRDTC,Date/Time of Tumor Measurement,Char,,,ISO 8601,Timing,TRDTC variable represents the date of the scan/image/physical exam not the date that the image was read to identify tumors. TRDTC variable does not represent the VISIT date.,Exp
Findings,TR,29,TRDY,Study Day of Tumor Measurement,Num,,,,Timing,"1. Study day of the scan/image/physical exam, measured as integer days.  2. Algorithm for calculations must be relative to the sponsor-defined RFSTDTC variable in Demographics.",Perm
Findings,RS,1,STUDYID,Study Identifier,Char,,,,Identifier,Unique identifier for a study.,Req
Findings,RS,2,DOMAIN,Domain Abbreviation,Char,,RS,,Identifier,Two-character abbreviation for the domain.,Req
Findings,RS,3,USUBJID,Unique Subject Identifier,Char,,,,Identifier,Identifier used to uniquely identify a subject across all studies for all applications or submissions involving the product.,Req
Findings,RS,4,RSSEQ,Sequence Number,Num,,,,Identifier,Sequence number given to ensure uniqueness within a dataset for a subject. May be any valid number.,Req
Findings,RS,5,RSGRPID,Group ID,Char,,,,Identifier,Used to link together a block of related records within a subject in a domain.,Perm
Findings,RS,6,RSREFID,Reference ID,Char,,,,Identifier,Internal or external identifier.,Perm
Findings,RS,7,RSSPID,Sponsor-Defined Identifier,Char,,,,Identifier,Sponsor-defined identifier.,Perm
Findings,RS,8,RSLNKID,Link ID,Char,,,,Identifier,Used to link the response assessment to the appropriate measurement records (in TR) for same tumor that was used to determine the response result.,Perm
Findings,RS,9,RSLNKGRP,Link Group,Char,,,,Identifier,Used to link the response assessment to the all of the measurement/assessment records in the TR domain which were used in the assessment of the response.,Perm
Findings,RS,10,RSTESTCD,Response Assessment Short Name,Char,C96782,,,Topic,"Short name of the TEST in RSTEST. RSTESTCD cannot contain characters other than letters, numbers, or underscores. Examples: TRGRESP, NTRGRESP, OVRRESP, BESTRESP, NRADPROG",Req
Findings,RS,11,RSTEST,Response Assessment Name,Char,C96781,,,Synonym Qualifier,"Verbatim name of the response assessment. The value in RSTEST cannot be longer than 40 characters. Examples: Target Response, Non-target Response, Overall Response, Best Overall Response, Non-radiological progression (i.e. Symptomatic deterioration)",Req
Findings,RS,12,RSCAT,Category for Response Assessment,Char,,,,Grouping Qualifier,RSCAT is used to identify the criteria used in the assessment of response and a version number if appropriate,Exp
Findings,RS,13,RSORRES,Response Assessment Original Result,Char,,,,Result Qualifier,"Result of the Response assessment as originally received, collected, or calculated.",Exp
Findings,RS,14,RSSTRESC,Response Assessment Result in Std Format,Char,,,,Record Qualifier,"Contains the result value for the response assessment, copied or derived from RSORRES in a standard format or standard units. RSSTRESC should store all results or findings in character format;",Exp
Findings,RS,15,RSSTAT,Completion Status,Char,C66789,,,Result Qualifier,Used to indicate the response assessment was not performed. Should be Null if a result exists in RSORRES.,Perm
Findings,RS,16,RSREASND,Reason Response Assessment Not Performed,Char,,,,Record Qualifier,"Describes why a response assessment was not performed. Examples: All target tumors not evaluated, Subject does not have non-target tumors. Used in conjunction with TRSTAT when value is NOT DONE.",Perm
Findings,RS,17,RSNAM,Vendor Name,Char,,,,Record Qualifier,The name or identifier of the vendor that performed the response assessment. This column can be left Null when the Investigator provides the complete set of data in the domain.,Perm
Findings,RS,18,RSEVAL,Evaluator,Char,C78735,,,Record Qualifier,"Role of the person who provided the evaluation. Examples: INVESTIGATOR, INDEPENDENT ASSESSOR. This column can be left Null when the Investigator provides the complete set of data in the domain. However the column should contain no Null values when data from one or more independent assessors is included meaning that the rows attributed to the Investigator should contain a value of INVESTIGATOR.",Exp
Findings,RS,19,RSEVALID,Evaluator Identifier,Char,C96777,,,Variable Qualifier,"The Evaluator Specified variable is used in conjunction with RSEVAL to provide an additional level of detail. When multiple assessors play the role identified in RSEVAL, values of RSEVALID will attribute a row of data to a particular assessor. RSEVALID should not contain the names of the assessors, or a code identifier for a specific assessor. The RSEVALID variable is subject to CDISC Controlled Terminology. Examples: RADIOLOGIST, RADIOLOGIST 1 or RADIOLOGIST 2. See Assumption 4",Perm
Findings,RS,20,RSACPTFL,Accepted Record Flag,Char,C66742,,,Record Qualifier,"In cases where more than one independent assessor (e.g. RADIOLOGIST 1, RADIOLOGIST 2, ADJUDICATOR) provides an evaluation of response this flag identifies the record that is considered to be the accepted evaluation.",Perm
Findings,RS,21,VISITNUM,Visit Number,Num,,,,Timing,"1. Clinical encounter number.  2. Numeric version of VISIT, used for sorting.",Exp
Findings,RS,22,VISIT,Visit Name,Char,,,,Timing,1. Protocol-defined description of clinical encounter.  2. May be used in addition to VISITNUM and/or VISITDY.,Perm
Findings,RS,23,VISITDY,Planned Study Day of Visit,Num,,,,Timing,,Perm
Findings,RS,24,EPOCH,Epoch,Char,,,,Timing,Epoch associated with the Element in the planned sequence of Elements for the ARM to which the subject was assigned,Perm
Findings,RS,25,RSDTC,Date/Time of Response Assessment,Char,,,ISO 8601,Timing,"RSDTC may be derived from the dates of scans/images/physical exams which may be performed on different dates. However, if all assessments are performed on the same date, RSDTC may be consistent with the TUDTC and TRDTC. Note the physical exam date may correspond to the visit date.",Exp
Findings,RS,26,RSDY,Study Day of Response Assessment,Num,,,,Timing,"1. Study day of the response assessment, measured as integer days. 2. Algorithm for calculations must be relative to the sponsor-defined RFSTDTC variable in Demographics.",Perm
Findings,VS,1,STUDYID,Study Identifier,Char,,,,Identifier,Unique identifier for a study.,Req
Findings,VS,2,DOMAIN,Domain Abbreviation,Char,,VS,,Identifier,Two-character abbreviation for the domain.,Req
Findings,VS,3,USUBJID,Unique Subject Identifier,Char,,,,Identifier,Identifier used to uniquely identify a subject across all studies for all applications or submissions involving the product.,Req
Findings,VS,4,VSSEQ,Sequence Number,Num,,,,Identifier,Sequence Number given to ensure uniqueness of subject records within a domain. May be any valid number.,Req
Findings,VS,5,VSGRPID,Group ID,Char,,,,Identifier,Used to tie together a block of related records in a single domain for a subject.,Perm
Findings,VS,6,VSSPID,Sponsor-Defined Identifier,Char,,,,Identifier,Sponsor-defined reference number. Perhaps pre-printed on the CRF as an explicit line identifier or defined in the sponsor's operational database.,Perm
